# Sphero Kalman Filter Data
"# Each row: [timestamp, seq, dt_s, theta, roll, pitch, vel_x, vel_y, v_forward, gyro_z, accel_x, accel_y, accel_z] -- all values are directly from Sphero sensors. Conversions: accel raw in g, *9.81 for m/s^2; gyro raw in deg/s, *pi/180 for rad/s; velocity raw in mm/s, /1000 for m/s; v_forward is projection onto heading (see code)."
"timestamp (monotonic, s)",seq,dt_s,theta (rad),roll (deg),pitch (deg),vel_x (mm/s),vel_y (mm/s),v_forward (m/s),gyro_z (rad/s),accel_x (m/s^2),accel_y (m/s^2),accel_z (m/s^2)
4577043.358663,0,0.000000,0.026778,-1.627862,-5.104230,-0.008040,0.229902,-0.000002,-0.035863,-0.340262,0.653439,9.660614
4577043.370531,1,0.011868,0.026778,-1.627862,-5.104230,-0.008040,0.229902,-0.000002,-0.035863,-0.340262,0.653439,9.660614
4577043.381576,2,0.011046,0.026778,-1.627862,-5.104230,-0.008040,0.229902,-0.000002,-0.035863,-0.340262,0.653439,9.660614
4577043.393287,3,0.011711,0.026778,-1.627862,-5.104230,-0.008040,0.229902,-0.000002,-0.035863,-0.340262,0.653439,9.660614
4577043.405811,4,0.012524,0.026778,-1.627862,-5.104230,-0.008040,0.229902,-0.000002,-0.035863,-0.340262,0.653439,9.660614
4577043.418325,5,0.012514,0.026372,-1.763756,-5.038842,0.001583,0.144050,0.000005,-0.034317,-0.300487,0.808664,9.659874
4577043.430841,6,0.012517,0.026372,-1.763756,-5.038842,0.001583,0.144050,0.000005,-0.034317,-0.300487,0.808664,9.659874
4577043.443363,7,0.012522,0.026372,-1.763756,-5.038842,0.001583,0.144050,0.000005,-0.034317,-0.300487,0.808664,9.659874
4577043.455883,8,0.012520,0.026372,-1.763756,-5.038842,0.001583,0.144050,0.000005,-0.034317,-0.300487,0.808664,9.659874
4577043.468399,9,0.012516,0.026372,-1.763756,-5.038842,0.001583,0.144050,0.000005,-0.034317,-0.300487,0.808664,9.659874
4577043.480913,10,0.012514,0.026372,-1.763756,-5.038842,0.001583,0.144050,0.000005,-0.034317,-0.300487,0.808664,9.659874
4577043.493430,11,0.012517,0.026372,-1.763756,-5.038842,0.001583,0.144050,0.000005,-0.034317,-0.300487,0.808664,9.659874
4577043.505945,12,0.012516,0.026372,-1.763756,-5.038842,0.001583,0.144050,0.000005,-0.034317,-0.300487,0.808664,9.659874
4577043.518459,13,0.012514,0.026372,-1.763756,-5.038842,0.001583,0.144050,0.000005,-0.034317,-0.300487,0.808664,9.659874
4577043.530976,14,0.012516,0.026372,-1.763756,-5.038842,0.001583,0.144050,0.000005,-0.034317,-0.300487,0.808664,9.659874
4577043.543534,15,0.012558,0.026372,-1.763756,-5.038842,0.001583,0.144050,0.000005,-0.034317,-0.300487,0.808664,9.659874
4577043.556096,16,0.012563,0.026372,-1.763756,-5.038842,0.001583,0.144050,0.000005,-0.034317,-0.300487,0.808664,9.659874
4577043.566610,17,0.010513,0.026372,-1.763756,-5.038842,0.001583,0.144050,0.000005,-0.034317,-0.300487,0.808664,9.659874
4577043.579154,18,0.012544,0.026372,-1.763756,-5.038842,0.001583,0.144050,0.000005,-0.034317,-0.300487,0.808664,9.659874
4577043.591707,19,0.012553,0.026372,-1.763756,-5.038842,0.001583,0.144050,0.000005,-0.034317,-0.300487,0.808664,9.659874
4577043.604245,20,0.012539,0.026372,-1.763756,-5.038842,0.001583,0.144050,0.000005,-0.034317,-0.300487,0.808664,9.659874
4577043.616776,21,0.012531,0.026372,-1.763756,-5.038842,0.001583,0.144050,0.000005,-0.034317,-0.300487,0.808664,9.659874
4577043.629306,22,0.012529,-0.009996,-2.004002,-2.178226,0.019960,3.129051,-0.000011,-0.211432,-0.420644,0.265760,9.701315
4577043.641797,23,0.012491,-0.009996,-2.004002,-2.178226,0.019960,3.129051,-0.000011,-0.211432,-0.420644,0.265760,9.701315
4577043.654199,24,0.012402,-0.009996,-2.004002,-2.178226,0.019960,3.129051,-0.000011,-0.211432,-0.420644,0.265760,9.701315
4577043.664401,25,0.010202,-0.009996,-2.004002,-2.178226,0.019960,3.129051,-0.000011,-0.211432,-0.420644,0.265760,9.701315
4577043.676940,26,0.012539,-0.009996,-2.004002,-2.178226,0.019960,3.129051,-0.000011,-0.211432,-0.420644,0.265760,9.701315
4577043.687132,27,0.010192,-0.009996,-2.004002,-2.178226,0.019960,3.129051,-0.000011,-0.211432,-0.420644,0.265760,9.701315
4577043.699250,28,0.012118,-0.009996,-2.004002,-2.178226,0.019960,3.129051,-0.000011,-0.211432,-0.420644,0.265760,9.701315
4577043.711552,29,0.012302,-0.009996,-2.004002,-2.178226,0.019960,3.129051,-0.000011,-0.211432,-0.420644,0.265760,9.701315
4577043.724082,30,0.012530,-0.009996,-2.004002,-2.178226,0.019960,3.129051,-0.000011,-0.211432,-0.420644,0.265760,9.701315
4577043.734411,31,0.010329,-0.009996,-2.004002,-2.178226,0.019960,3.129051,-0.000011,-0.211432,-0.420644,0.265760,9.701315
4577043.747148,32,0.012737,-0.009996,-2.004002,-2.178226,0.019960,3.129051,-0.000011,-0.211432,-0.420644,0.265760,9.701315
4577043.759719,33,0.012571,-0.009996,-2.004002,-2.178226,0.019960,3.129051,-0.000011,-0.211432,-0.420644,0.265760,9.701315
4577043.772247,34,0.012528,-0.009996,-2.004002,-2.178226,0.019960,3.129051,-0.000011,-0.211432,-0.420644,0.265760,9.701315
4577043.784774,35,0.012528,-0.007543,-2.005449,-0.536393,0.027546,3.534363,0.000001,0.307054,-0.383489,0.110404,9.780842
4577043.796981,36,0.012207,-0.007543,-2.005449,-0.536393,0.027546,3.534363,0.000001,0.307054,-0.383489,0.110404,9.780842
4577043.809516,37,0.012534,-0.007543,-2.005449,-0.536393,0.027546,3.534363,0.000001,0.307054,-0.383489,0.110404,9.780842
4577043.821072,38,0.011557,-0.007543,-2.005449,-0.536393,0.027546,3.534363,0.000001,0.307054,-0.383489,0.110404,9.780842
4577043.833609,39,0.012537,-0.007543,-2.005449,-0.536393,0.027546,3.534363,0.000001,0.307054,-0.383489,0.110404,9.780842
4577043.845305,40,0.011696,-0.007543,-2.005449,-0.536393,0.027546,3.534363,0.000001,0.307054,-0.383489,0.110404,9.780842
4577043.857632,41,0.012326,-0.007543,-2.005449,-0.536393,0.027546,3.534363,0.000001,0.307054,-0.383489,0.110404,9.780842
4577043.868782,42,0.011151,-0.007543,-2.005449,-0.536393,0.027546,3.534363,0.000001,0.307054,-0.383489,0.110404,9.780842
4577043.881346,43,0.012564,-0.007543,-2.005449,-0.536393,0.027546,3.534363,0.000001,0.307054,-0.383489,0.110404,9.780842
4577043.893233,44,0.011887,-0.007543,-2.005449,-0.536393,0.027546,3.534363,0.000001,0.307054,-0.383489,0.110404,9.780842
4577043.905111,45,0.011878,-0.007543,-2.005449,-0.536393,0.027546,3.534363,0.000001,0.307054,-0.383489,0.110404,9.780842
4577043.916409,46,0.011298,-0.007543,-2.005449,-0.536393,0.027546,3.534363,0.000001,0.307054,-0.383489,0.110404,9.780842
4577043.928933,47,0.012524,0.003038,-1.723149,1.633792,0.000896,0.292618,0.000002,0.040133,-0.306208,-0.128058,9.670845
4577043.940543,48,0.011609,0.003038,-1.723149,1.633792,0.000896,0.292618,0.000002,0.040133,-0.306208,-0.128058,9.670845
4577043.951139,49,0.010596,0.003038,-1.723149,1.633792,0.000896,0.292618,0.000002,0.040133,-0.306208,-0.128058,9.670845
4577043.963673,50,0.012534,0.003038,-1.723149,1.633792,0.000896,0.292618,0.000002,0.040133,-0.306208,-0.128058,9.670845
4577043.976204,51,0.012531,0.003038,-1.723149,1.633792,0.000896,0.292618,0.000002,0.040133,-0.306208,-0.128058,9.670845
4577043.988496,52,0.012292,0.003038,-1.723149,1.633792,0.000896,0.292618,0.000002,0.040133,-0.306208,-0.128058,9.670845
4577044.001049,53,0.012553,0.003038,-1.723149,1.633792,0.000896,0.292618,0.000002,0.040133,-0.306208,-0.128058,9.670845
4577044.013587,54,0.012538,0.003038,-1.723149,1.633792,0.000896,0.292618,0.000002,0.040133,-0.306208,-0.128058,9.670845
4577044.026121,55,0.012534,0.003038,-1.723149,1.633792,0.000896,0.292618,0.000002,0.040133,-0.306208,-0.128058,9.670845
4577044.036341,56,0.010220,0.003038,-1.723149,1.633792,0.000896,0.292618,0.000002,0.040133,-0.306208,-0.128058,9.670845
4577044.046760,57,0.010420,0.003038,-1.723149,1.633792,0.000896,0.292618,0.000002,0.040133,-0.306208,-0.128058,9.670845
4577044.059043,58,0.012282,0.003038,-1.723149,1.633792,0.000896,0.292618,0.000002,0.040133,-0.306208,-0.128058,9.670845
4577044.070273,59,0.011230,0.003038,-1.723149,1.633792,0.000896,0.292618,0.000002,0.040133,-0.306208,-0.128058,9.670845
4577044.081580,60,0.011307,0.003038,-1.723149,1.633792,0.000896,0.292618,0.000002,0.040133,-0.306208,-0.128058,9.670845
4577044.094083,61,0.012503,0.003038,-1.723149,1.633792,0.000896,0.292618,0.000002,0.040133,-0.306208,-0.128058,9.670845
4577044.107231,62,0.013149,0.001172,-2.325422,0.305473,-0.001816,2.440383,0.000001,-0.292992,-0.503169,-0.354440,9.821368
4577044.119771,63,0.012540,0.001172,-2.325422,0.305473,-0.001816,2.440383,0.000001,-0.292992,-0.503169,-0.354440,9.821368
4577044.130499,64,0.010728,0.001172,-2.325422,0.305473,-0.001816,2.440383,0.000001,-0.292992,-0.503169,-0.354440,9.821368
4577044.143032,65,0.012533,0.001172,-2.325422,0.305473,-0.001816,2.440383,0.000001,-0.292992,-0.503169,-0.354440,9.821368
4577044.154379,66,0.011347,0.001172,-2.325422,0.305473,-0.001816,2.440383,0.000001,-0.292992,-0.503169,-0.354440,9.821368
4577044.165908,67,0.011529,0.001172,-2.325422,0.305473,-0.001816,2.440383,0.000001,-0.292992,-0.503169,-0.354440,9.821368
4577044.177059,68,0.011152,0.001172,-2.325422,0.305473,-0.001816,2.440383,0.000001,-0.292992,-0.503169,-0.354440,9.821368
4577044.187269,69,0.010209,0.001172,-2.325422,0.305473,-0.001816,2.440383,0.000001,-0.292992,-0.503169,-0.354440,9.821368
4577044.199241,70,0.011972,0.001172,-2.325422,0.305473,-0.001816,2.440383,0.000001,-0.292992,-0.503169,-0.354440,9.821368
4577044.210764,71,0.011524,0.001172,-2.325422,0.305473,-0.001816,2.440383,0.000001,-0.292992,-0.503169,-0.354440,9.821368
4577044.223287,72,0.012522,0.001172,-2.325422,0.305473,-0.001816,2.440383,0.000001,-0.292992,-0.503169,-0.354440,9.821368
4577044.234459,73,0.011172,0.001172,-2.325422,0.305473,-0.001816,2.440383,0.000001,-0.292992,-0.503169,-0.354440,9.821368
4577044.245409,74,0.010950,0.001172,-2.325422,0.305473,-0.001816,2.440383,0.000001,-0.292992,-0.503169,-0.354440,9.821368
4577044.258210,75,0.012802,-0.013511,-2.846990,4.687850,0.084842,3.027328,0.000044,0.190801,-0.504611,-1.063621,9.523157
4577044.270752,76,0.012542,-0.013511,-2.846990,4.687850,0.084842,3.027328,0.000044,0.190801,-0.504611,-1.063621,9.523157
4577044.282585,77,0.011833,-0.013511,-2.846990,4.687850,0.084842,3.027328,0.000044,0.190801,-0.504611,-1.063621,9.523157
4577044.294326,78,0.011741,-0.013511,-2.846990,4.687850,0.084842,3.027328,0.000044,0.190801,-0.504611,-1.063621,9.523157
4577044.306486,79,0.012160,-0.013511,-2.846990,4.687850,0.084842,3.027328,0.000044,0.190801,-0.504611,-1.063621,9.523157
4577044.319016,80,0.012530,-0.013511,-2.846990,4.687850,0.084842,3.027328,0.000044,0.190801,-0.504611,-1.063621,9.523157
4577044.331539,81,0.012523,-0.013511,-2.846990,4.687850,0.084842,3.027328,0.000044,0.190801,-0.504611,-1.063621,9.523157
4577044.343198,82,0.011660,-0.013511,-2.846990,4.687850,0.084842,3.027328,0.000044,0.190801,-0.504611,-1.063621,9.523157
4577044.355727,83,0.012529,-0.013511,-2.846990,4.687850,0.084842,3.027328,0.000044,0.190801,-0.504611,-1.063621,9.523157
4577044.368073,84,0.012346,-0.013511,-2.846990,4.687850,0.084842,3.027328,0.000044,0.190801,-0.504611,-1.063621,9.523157
4577044.380606,85,0.012533,-0.013511,-2.846990,4.687850,0.084842,3.027328,0.000044,0.190801,-0.504611,-1.063621,9.523157
4577044.393151,86,0.012545,-0.013511,-2.846990,4.687850,0.084842,3.027328,0.000044,0.190801,-0.504611,-1.063621,9.523157
4577044.405273,87,0.012121,-0.013511,-2.846990,4.687850,0.084842,3.027328,0.000044,0.190801,-0.504611,-1.063621,9.523157
4577044.416418,88,0.011146,-0.013511,-2.846990,4.687850,0.084842,3.027328,0.000044,0.190801,-0.504611,-1.063621,9.523157
4577044.428948,89,0.012529,-0.013511,-2.846990,4.687850,0.084842,3.027328,0.000044,0.190801,-0.504611,-1.063621,9.523157
4577044.440399,90,0.011451,0.016911,-3.603073,1.286491,-0.003239,-0.028205,-0.000004,0.041027,-0.694058,0.117569,9.772139
4577044.452930,91,0.012531,0.016911,-3.603073,1.286491,-0.003239,-0.028205,-0.000004,0.041027,-0.694058,0.117569,9.772139
4577044.464915,92,0.011985,0.016911,-3.603073,1.286491,-0.003239,-0.028205,-0.000004,0.041027,-0.694058,0.117569,9.772139
4577044.477447,93,0.012532,0.016911,-3.603073,1.286491,-0.003239,-0.028205,-0.000004,0.041027,-0.694058,0.117569,9.772139
4577044.490004,94,0.012557,0.016911,-3.603073,1.286491,-0.003239,-0.028205,-0.000004,0.041027,-0.694058,0.117569,9.772139
4577044.500421,95,0.010417,0.016911,-3.603073,1.286491,-0.003239,-0.028205,-0.000004,0.041027,-0.694058,0.117569,9.772139
4577044.512967,96,0.012546,0.016911,-3.603073,1.286491,-0.003239,-0.028205,-0.000004,0.041027,-0.694058,0.117569,9.772139
4577044.523719,97,0.010752,0.016911,-3.603073,1.286491,-0.003239,-0.028205,-0.000004,0.041027,-0.694058,0.117569,9.772139
4577044.536260,98,0.012541,0.016911,-3.603073,1.286491,-0.003239,-0.028205,-0.000004,0.041027,-0.694058,0.117569,9.772139
4577044.548250,99,0.011991,0.016911,-3.603073,1.286491,-0.003239,-0.028205,-0.000004,0.041027,-0.694058,0.117569,9.772139
4577044.559741,100,0.011491,-0.008290,-2.343537,2.643807,0.001848,2.397849,-0.000018,-0.047419,-0.309184,-0.437808,9.789418
4577044.572269,101,0.012528,-0.008290,-2.343537,2.643807,0.001848,2.397849,-0.000018,-0.047419,-0.309184,-0.437808,9.789418
4577044.582732,102,0.010462,-0.008290,-2.343537,2.643807,0.001848,2.397849,-0.000018,-0.047419,-0.309184,-0.437808,9.789418
4577044.594125,103,0.011393,-0.008290,-2.343537,2.643807,0.001848,2.397849,-0.000018,-0.047419,-0.309184,-0.437808,9.789418
4577044.606656,104,0.012531,-0.008290,-2.343537,2.643807,0.001848,2.397849,-0.000018,-0.047419,-0.309184,-0.437808,9.789418
4577044.618474,105,0.011818,-0.008290,-2.343537,2.643807,0.001848,2.397849,-0.000018,-0.047419,-0.309184,-0.437808,9.789418
4577044.631029,106,0.012555,-0.008290,-2.343537,2.643807,0.001848,2.397849,-0.000018,-0.047419,-0.309184,-0.437808,9.789418
4577044.643576,107,0.012547,-0.008290,-2.343537,2.643807,0.001848,2.397849,-0.000018,-0.047419,-0.309184,-0.437808,9.789418
4577044.656079,108,0.012503,-0.008290,-2.343537,2.643807,0.001848,2.397849,-0.000018,-0.047419,-0.309184,-0.437808,9.789418
4577044.666786,109,0.010707,-0.008290,-2.343537,2.643807,0.001848,2.397849,-0.000018,-0.047419,-0.309184,-0.437808,9.789418
4577044.679404,110,0.012618,-0.008806,-1.427589,2.431013,0.056042,7.048954,-0.000006,-0.264886,-0.387197,-1.028938,9.449353
4577044.691888,111,0.012484,-0.008806,-1.427589,2.431013,0.056042,7.048954,-0.000006,-0.264886,-0.387197,-1.028938,9.449353
4577044.704451,112,0.012564,-0.008806,-1.427589,2.431013,0.056042,7.048954,-0.000006,-0.264886,-0.387197,-1.028938,9.449353
4577044.715999,113,0.011547,-0.008806,-1.427589,2.431013,0.056042,7.048954,-0.000006,-0.264886,-0.387197,-1.028938,9.449353
4577044.726530,114,0.010531,-0.008806,-1.427589,2.431013,0.056042,7.048954,-0.000006,-0.264886,-0.387197,-1.028938,9.449353
4577044.738333,115,0.011803,-0.008806,-1.427589,2.431013,0.056042,7.048954,-0.000006,-0.264886,-0.387197,-1.028938,9.449353
4577044.749241,116,0.010908,-0.008806,-1.427589,2.431013,0.056042,7.048954,-0.000006,-0.264886,-0.387197,-1.028938,9.449353
4577044.760077,117,0.010836,-0.008806,-1.427589,2.431013,0.056042,7.048954,-0.000006,-0.264886,-0.387197,-1.028938,9.449353
4577044.772599,118,0.012522,-0.008806,-1.427589,2.431013,0.056042,7.048954,-0.000006,-0.264886,-0.387197,-1.028938,9.449353
4577044.783808,119,0.011209,-0.008806,-1.427589,2.431013,0.056042,7.048954,-0.000006,-0.264886,-0.387197,-1.028938,9.449353
4577044.796204,120,0.012396,-0.008806,-1.427589,2.431013,0.056042,7.048954,-0.000006,-0.264886,-0.387197,-1.028938,9.449353
4577044.808764,121,0.012559,-0.008806,-1.427589,2.431013,0.056042,7.048954,-0.000006,-0.264886,-0.387197,-1.028938,9.449353
4577044.821320,122,0.012556,-0.008806,-1.427589,2.431013,0.056042,7.048954,-0.000006,-0.264886,-0.387197,-1.028938,9.449353
4577044.833353,123,0.012033,-0.008806,-1.427589,2.431013,0.056042,7.048954,-0.000006,-0.264886,-0.387197,-1.028938,9.449353
4577044.845887,124,0.012535,-0.008806,-1.427589,2.431013,0.056042,7.048954,-0.000006,-0.264886,-0.387197,-1.028938,9.449353
4577044.858425,125,0.012538,-0.007660,-0.117675,1.942770,0.053374,6.298856,0.000005,0.035504,0.198828,0.096969,9.797161
4577044.870365,126,0.011939,-0.007660,-0.117675,1.942770,0.053374,6.298856,0.000005,0.035504,0.198828,0.096969,9.797161
4577044.882172,127,0.011808,-0.007660,-0.117675,1.942770,0.053374,6.298856,0.000005,0.035504,0.198828,0.096969,9.797161
4577044.894701,128,0.012528,-0.007660,-0.117675,1.942770,0.053374,6.298856,0.000005,0.035504,0.198828,0.096969,9.797161
4577044.907228,129,0.012527,-0.007660,-0.117675,1.942770,0.053374,6.298856,0.000005,0.035504,0.198828,0.096969,9.797161
4577044.919751,130,0.012524,-0.007660,-0.117675,1.942770,0.053374,6.298856,0.000005,0.035504,0.198828,0.096969,9.797161
4577044.931582,131,0.011831,-0.007660,-0.117675,1.942770,0.053374,6.298856,0.000005,0.035504,0.198828,0.096969,9.797161
4577044.944117,132,0.012535,-0.007660,-0.117675,1.942770,0.053374,6.298856,0.000005,0.035504,0.198828,0.096969,9.797161
4577044.957298,133,0.013180,-0.007660,-0.117675,1.942770,0.053374,6.298856,0.000005,0.035504,0.198828,0.096969,9.797161
4577044.975458,134,0.018160,-0.007660,-0.117675,1.942770,0.053374,6.298856,0.000005,0.035504,0.198828,0.096969,9.797161
4577044.988003,135,0.012546,-0.007660,-0.117675,1.942770,0.053374,6.298856,0.000005,0.035504,0.198828,0.096969,9.797161
4577045.000535,136,0.012532,-0.007660,-0.117675,1.942770,0.053374,6.298856,0.000005,0.035504,0.198828,0.096969,9.797161
4577045.012694,137,0.012159,0.000470,-2.491857,3.259436,0.101336,8.163708,0.000105,-0.146644,-0.309457,-1.901839,8.887009
4577045.023936,138,0.011241,0.000470,-2.491857,3.259436,0.101336,8.163708,0.000105,-0.146644,-0.309457,-1.901839,8.887009
4577045.035490,139,0.011554,0.000470,-2.491857,3.259436,0.101336,8.163708,0.000105,-0.146644,-0.309457,-1.901839,8.887009
4577045.048029,140,0.012539,0.000470,-2.491857,3.259436,0.101336,8.163708,0.000105,-0.146644,-0.309457,-1.901839,8.887009
4577045.060558,141,0.012528,0.000470,-2.491857,3.259436,0.101336,8.163708,0.000105,-0.146644,-0.309457,-1.901839,8.887009
4577045.072296,142,0.011738,0.000470,-2.491857,3.259436,0.101336,8.163708,0.000105,-0.146644,-0.309457,-1.901839,8.887009
4577045.084843,143,0.012547,0.000470,-2.491857,3.259436,0.101336,8.163708,0.000105,-0.146644,-0.309457,-1.901839,8.887009
4577045.097046,144,0.012202,0.000470,-2.491857,3.259436,0.101336,8.163708,0.000105,-0.146644,-0.309457,-1.901839,8.887009
4577045.109591,145,0.012545,0.000470,-2.491857,3.259436,0.101336,8.163708,0.000105,-0.146644,-0.309457,-1.901839,8.887009
4577045.122123,146,0.012533,0.000470,-2.491857,3.259436,0.101336,8.163708,0.000105,-0.146644,-0.309457,-1.901839,8.887009
4577045.134652,147,0.012529,0.000470,-2.491857,3.259436,0.101336,8.163708,0.000105,-0.146644,-0.309457,-1.901839,8.887009
4577045.147178,148,0.012526,0.000470,-2.491857,3.259436,0.101336,8.163708,0.000105,-0.146644,-0.309457,-1.901839,8.887009
4577045.159703,149,0.012526,0.000470,-2.491857,3.259436,0.101336,8.163708,0.000105,-0.146644,-0.309457,-1.901839,8.887009
4577045.172297,150,0.012593,-0.012581,-5.647682,0.687546,0.076277,5.808246,0.000003,0.101137,-1.233748,0.398339,9.523877
4577045.182567,151,0.010271,-0.012581,-5.647682,0.687546,0.076277,5.808246,0.000003,0.101137,-1.233748,0.398339,9.523877
4577045.194595,152,0.012027,-0.012581,-5.647682,0.687546,0.076277,5.808246,0.000003,0.101137,-1.233748,0.398339,9.523877
4577045.207118,153,0.012524,-0.012581,-5.647682,0.687546,0.076277,5.808246,0.000003,0.101137,-1.233748,0.398339,9.523877
4577045.219464,154,0.012345,-0.012581,-5.647682,0.687546,0.076277,5.808246,0.000003,0.101137,-1.233748,0.398339,9.523877
4577045.231984,155,0.012521,-0.012581,-5.647682,0.687546,0.076277,5.808246,0.000003,0.101137,-1.233748,0.398339,9.523877
4577045.244513,156,0.012528,-0.012581,-5.647682,0.687546,0.076277,5.808246,0.000003,0.101137,-1.233748,0.398339,9.523877
4577045.257043,157,0.012531,-0.012581,-5.647682,0.687546,0.076277,5.808246,0.000003,0.101137,-1.233748,0.398339,9.523877
4577045.267425,158,0.010382,-0.012581,-5.647682,0.687546,0.076277,5.808246,0.000003,0.101137,-1.233748,0.398339,9.523877
4577045.279438,159,0.012013,-0.012581,-5.647682,0.687546,0.076277,5.808246,0.000003,0.101137,-1.233748,0.398339,9.523877
4577045.292760,160,0.013322,-0.018311,-2.634568,-1.146690,0.153378,6.494552,0.000034,0.448109,-1.002837,0.476835,9.797626
4577045.305290,161,0.012530,-0.018311,-2.634568,-1.146690,0.153378,6.494552,0.000034,0.448109,-1.002837,0.476835,9.797626
4577045.317446,162,0.012156,-0.018311,-2.634568,-1.146690,0.153378,6.494552,0.000034,0.448109,-1.002837,0.476835,9.797626
4577045.329979,163,0.012533,-0.018311,-2.634568,-1.146690,0.153378,6.494552,0.000034,0.448109,-1.002837,0.476835,9.797626
4577045.341992,164,0.012013,-0.018311,-2.634568,-1.146690,0.153378,6.494552,0.000034,0.448109,-1.002837,0.476835,9.797626
4577045.353691,165,0.011699,-0.018311,-2.634568,-1.146690,0.153378,6.494552,0.000034,0.448109,-1.002837,0.476835,9.797626
4577045.366230,166,0.012539,-0.018311,-2.634568,-1.146690,0.153378,6.494552,0.000034,0.448109,-1.002837,0.476835,9.797626
4577045.378769,167,0.012539,-0.018311,-2.634568,-1.146690,0.153378,6.494552,0.000034,0.448109,-1.002837,0.476835,9.797626
4577045.389959,168,0.011190,-0.018311,-2.634568,-1.146690,0.153378,6.494552,0.000034,0.448109,-1.002837,0.476835,9.797626
4577045.402488,169,0.012529,-0.018311,-2.634568,-1.146690,0.153378,6.494552,0.000034,0.448109,-1.002837,0.476835,9.797626
4577045.415019,170,0.012531,-0.018311,-2.634568,-1.146690,0.153378,6.494552,0.000034,0.448109,-1.002837,0.476835,9.797626
4577045.427548,171,0.012530,-0.018311,-2.634568,-1.146690,0.153378,6.494552,0.000034,0.448109,-1.002837,0.476835,9.797626
4577045.440017,172,0.012469,-0.018311,-2.634568,-1.146690,0.153378,6.494552,0.000034,0.448109,-1.002837,0.476835,9.797626
4577045.452588,173,0.012571,-0.018311,-2.634568,-1.146690,0.153378,6.494552,0.000034,0.448109,-1.002837,0.476835,9.797626
4577045.465118,174,0.012529,-0.016166,1.342088,-1.707883,0.185703,10.231666,0.000020,-0.138184,0.635151,1.371789,9.640822
4577045.476552,175,0.011434,-0.016166,1.342088,-1.707883,0.185703,10.231666,0.000020,-0.138184,0.635151,1.371789,9.640822
4577045.489080,176,0.012528,-0.016166,1.342088,-1.707883,0.185703,10.231666,0.000020,-0.138184,0.635151,1.371789,9.640822
4577045.500821,177,0.011741,-0.016166,1.342088,-1.707883,0.185703,10.231666,0.000020,-0.138184,0.635151,1.371789,9.640822
4577045.513348,178,0.012527,-0.016166,1.342088,-1.707883,0.185703,10.231666,0.000020,-0.138184,0.635151,1.371789,9.640822
4577045.525115,179,0.011767,-0.016166,1.342088,-1.707883,0.185703,10.231666,0.000020,-0.138184,0.635151,1.371789,9.640822
4577045.536424,180,0.011309,-0.016166,1.342088,-1.707883,0.185703,10.231666,0.000020,-0.138184,0.635151,1.371789,9.640822
4577045.548300,181,0.011876,-0.016166,1.342088,-1.707883,0.185703,10.231666,0.000020,-0.138184,0.635151,1.371789,9.640822
4577045.560154,182,0.011854,-0.016166,1.342088,-1.707883,0.185703,10.231666,0.000020,-0.138184,0.635151,1.371789,9.640822
4577045.572688,183,0.012535,-0.016166,1.342088,-1.707883,0.185703,10.231666,0.000020,-0.138184,0.635151,1.371789,9.640822
4577045.583813,184,0.011125,-0.016166,1.342088,-1.707883,0.185703,10.231666,0.000020,-0.138184,0.635151,1.371789,9.640822
4577045.596341,185,0.012528,-0.016166,1.342088,-1.707883,0.185703,10.231666,0.000020,-0.138184,0.635151,1.371789,9.640822
4577045.606684,186,0.010342,-0.016166,1.342088,-1.707883,0.185703,10.231666,0.000020,-0.138184,0.635151,1.371789,9.640822
4577045.617942,187,0.011259,-0.000320,0.074702,-3.655554,-0.073718,5.235828,-0.000075,-0.386276,0.329580,1.842335,9.396802
4577045.629214,188,0.011272,-0.000320,0.074702,-3.655554,-0.073718,5.235828,-0.000075,-0.386276,0.329580,1.842335,9.396802
4577045.639997,189,0.010782,-0.000320,0.074702,-3.655554,-0.073718,5.235828,-0.000075,-0.386276,0.329580,1.842335,9.396802
4577045.652518,190,0.012521,-0.000320,0.074702,-3.655554,-0.073718,5.235828,-0.000075,-0.386276,0.329580,1.842335,9.396802
4577045.665036,191,0.012518,-0.000320,0.074702,-3.655554,-0.073718,5.235828,-0.000075,-0.386276,0.329580,1.842335,9.396802
4577045.677223,192,0.012187,-0.000320,0.074702,-3.655554,-0.073718,5.235828,-0.000075,-0.386276,0.329580,1.842335,9.396802
4577045.689756,193,0.012532,-0.000320,0.074702,-3.655554,-0.073718,5.235828,-0.000075,-0.386276,0.329580,1.842335,9.396802
4577045.702289,194,0.012533,-0.000320,0.074702,-3.655554,-0.073718,5.235828,-0.000075,-0.386276,0.329580,1.842335,9.396802
4577045.714819,195,0.012529,-0.000320,0.074702,-3.655554,-0.073718,5.235828,-0.000075,-0.386276,0.329580,1.842335,9.396802
4577045.727347,196,0.012528,-0.000320,0.074702,-3.655554,-0.073718,5.235828,-0.000075,-0.386276,0.329580,1.842335,9.396802
4577045.737968,197,0.010621,-0.000320,0.074702,-3.655554,-0.073718,5.235828,-0.000075,-0.386276,0.329580,1.842335,9.396802
4577045.749668,198,0.011700,-0.000320,0.074702,-3.655554,-0.073718,5.235828,-0.000075,-0.386276,0.329580,1.842335,9.396802
4577045.762196,199,0.012528,-0.000320,0.074702,-3.655554,-0.073718,5.235828,-0.000075,-0.386276,0.329580,1.842335,9.396802
4577045.773529,200,0.011334,-0.007313,-4.119369,0.328115,0.050221,6.594664,0.000002,-0.156837,-0.728958,0.228085,9.424933
4577045.786063,201,0.012534,-0.007313,-4.119369,0.328115,0.050221,6.594664,0.000002,-0.156837,-0.728958,0.228085,9.424933
4577045.798598,202,0.012535,-0.007313,-4.119369,0.328115,0.050221,6.594664,0.000002,-0.156837,-0.728958,0.228085,9.424933
4577045.809888,203,0.011289,-0.007313,-4.119369,0.328115,0.050221,6.594664,0.000002,-0.156837,-0.728958,0.228085,9.424933
4577045.822414,204,0.012526,-0.007313,-4.119369,0.328115,0.050221,6.594664,0.000002,-0.156837,-0.728958,0.228085,9.424933
4577045.833698,205,0.011284,-0.007313,-4.119369,0.328115,0.050221,6.594664,0.000002,-0.156837,-0.728958,0.228085,9.424933
4577045.843958,206,0.010260,-0.007313,-4.119369,0.328115,0.050221,6.594664,0.000002,-0.156837,-0.728958,0.228085,9.424933
4577045.854543,207,0.010585,-0.007313,-4.119369,0.328115,0.050221,6.594664,0.000002,-0.156837,-0.728958,0.228085,9.424933
4577045.866583,208,0.012040,-0.007313,-4.119369,0.328115,0.050221,6.594664,0.000002,-0.156837,-0.728958,0.228085,9.424933
4577045.878135,209,0.011552,-0.007313,-4.119369,0.328115,0.050221,6.594664,0.000002,-0.156837,-0.728958,0.228085,9.424933
4577045.890657,210,0.012522,-0.007313,-4.119369,0.328115,0.050221,6.594664,0.000002,-0.156837,-0.728958,0.228085,9.424933
4577045.902569,211,0.011911,-0.007313,-4.119369,0.328115,0.050221,6.594664,0.000002,-0.156837,-0.728958,0.228085,9.424933
4577045.914958,212,0.012390,-0.007313,-4.119369,0.328115,0.050221,6.594664,0.000002,-0.156837,-0.728958,0.228085,9.424933
4577045.926704,213,0.011746,-0.007313,-4.119369,0.328115,0.050221,6.594664,0.000002,-0.156837,-0.728958,0.228085,9.424933
4577045.939227,214,0.012523,-0.007313,-4.119369,0.328115,0.050221,6.594664,0.000002,-0.156837,-0.728958,0.228085,9.424933
4577045.951756,215,0.012529,-0.007313,-4.119369,0.328115,0.050221,6.594664,0.000002,-0.156837,-0.728958,0.228085,9.424933
4577045.964284,216,0.012528,-0.008647,-5.257408,0.408753,0.056986,6.194197,0.000003,-0.342053,-0.766838,-0.089899,9.121061
4577045.976808,217,0.012524,-0.008647,-5.257408,0.408753,0.056986,6.194197,0.000003,-0.342053,-0.766838,-0.089899,9.121061
4577045.989332,218,0.012524,-0.008647,-5.257408,0.408753,0.056986,6.194197,0.000003,-0.342053,-0.766838,-0.089899,9.121061
4577046.001864,219,0.012532,-0.008647,-5.257408,0.408753,0.056986,6.194197,0.000003,-0.342053,-0.766838,-0.089899,9.121061
4577046.014387,220,0.012523,-0.008647,-5.257408,0.408753,0.056986,6.194197,0.000003,-0.342053,-0.766838,-0.089899,9.121061
4577046.024561,221,0.010174,-0.008647,-5.257408,0.408753,0.056986,6.194197,0.000003,-0.342053,-0.766838,-0.089899,9.121061
4577046.037086,222,0.012525,-0.008647,-5.257408,0.408753,0.056986,6.194197,0.000003,-0.342053,-0.766838,-0.089899,9.121061
4577046.049174,223,0.012088,-0.008647,-5.257408,0.408753,0.056986,6.194197,0.000003,-0.342053,-0.766838,-0.089899,9.121061
4577046.061579,224,0.012405,-0.008647,-5.257408,0.408753,0.056986,6.194197,0.000003,-0.342053,-0.766838,-0.089899,9.121061
4577046.073841,225,0.012263,-0.008647,-5.257408,0.408753,0.056986,6.194197,0.000003,-0.342053,-0.766838,-0.089899,9.121061
4577046.085679,226,0.011837,-0.008647,-5.257408,0.408753,0.056986,6.194197,0.000003,-0.342053,-0.766838,-0.089899,9.121061
4577046.095912,227,0.010233,-0.008408,-1.423898,0.462226,0.027892,4.342898,-0.000009,0.439422,-0.302285,0.100313,9.399967
4577046.107681,228,0.011769,-0.008408,-1.423898,0.462226,0.027892,4.342898,-0.000009,0.439422,-0.302285,0.100313,9.399967
4577046.120206,229,0.012525,-0.008408,-1.423898,0.462226,0.027892,4.342898,-0.000009,0.439422,-0.302285,0.100313,9.399967
4577046.132735,230,0.012528,-0.008408,-1.423898,0.462226,0.027892,4.342898,-0.000009,0.439422,-0.302285,0.100313,9.399967
4577046.143771,231,0.011037,-0.008408,-1.423898,0.462226,0.027892,4.342898,-0.000009,0.439422,-0.302285,0.100313,9.399967
4577046.154686,232,0.010915,-0.008408,-1.423898,0.462226,0.027892,4.342898,-0.000009,0.439422,-0.302285,0.100313,9.399967
4577046.166593,233,0.011906,-0.008408,-1.423898,0.462226,0.027892,4.342898,-0.000009,0.439422,-0.302285,0.100313,9.399967
4577046.177704,234,0.011111,-0.008408,-1.423898,0.462226,0.027892,4.342898,-0.000009,0.439422,-0.302285,0.100313,9.399967
4577046.190232,235,0.012528,-0.008408,-1.423898,0.462226,0.027892,4.342898,-0.000009,0.439422,-0.302285,0.100313,9.399967
4577046.202768,236,0.012536,-0.008408,-1.423898,0.462226,0.027892,4.342898,-0.000009,0.439422,-0.302285,0.100313,9.399967
4577046.215306,237,0.012538,-0.008408,-1.423898,0.462226,0.027892,4.342898,-0.000009,0.439422,-0.302285,0.100313,9.399967
4577046.227851,238,0.012545,-0.008408,-1.423898,0.462226,0.027892,4.342898,-0.000009,0.439422,-0.302285,0.100313,9.399967
4577046.240454,239,0.012603,-0.008086,1.155054,0.139678,0.044944,5.617224,-0.000000,-0.007491,0.236931,-0.139767,9.724382
4577046.252981,240,0.012527,-0.008086,1.155054,0.139678,0.044944,5.617224,-0.000000,-0.007491,0.236931,-0.139767,9.724382
4577046.264511,241,0.011530,-0.008086,1.155054,0.139678,0.044944,5.617224,-0.000000,-0.007491,0.236931,-0.139767,9.724382
4577046.277031,242,0.012519,-0.008086,1.155054,0.139678,0.044944,5.617224,-0.000000,-0.007491,0.236931,-0.139767,9.724382
4577046.289550,243,0.012519,-0.008086,1.155054,0.139678,0.044944,5.617224,-0.000000,-0.007491,0.236931,-0.139767,9.724382
4577046.302068,244,0.012518,-0.008086,1.155054,0.139678,0.044944,5.617224,-0.000000,-0.007491,0.236931,-0.139767,9.724382
4577046.314587,245,0.012519,-0.008086,1.155054,0.139678,0.044944,5.617224,-0.000000,-0.007491,0.236931,-0.139767,9.724382
4577046.327106,246,0.012519,-0.008086,1.155054,0.139678,0.044944,5.617224,-0.000000,-0.007491,0.236931,-0.139767,9.724382
4577046.339623,247,0.012517,-0.008086,1.155054,0.139678,0.044944,5.617224,-0.000000,-0.007491,0.236931,-0.139767,9.724382
4577046.352148,248,0.012525,-0.008086,1.155054,0.139678,0.044944,5.617224,-0.000000,-0.007491,0.236931,-0.139767,9.724382
4577046.364670,249,0.012521,-0.008086,1.155054,0.139678,0.044944,5.617224,-0.000000,-0.007491,0.236931,-0.139767,9.724382
4577046.376510,250,0.011841,-0.008086,1.155054,0.139678,0.044944,5.617224,-0.000000,-0.007491,0.236931,-0.139767,9.724382
4577046.388280,251,0.011770,-0.008086,1.155054,0.139678,0.044944,5.617224,-0.000000,-0.007491,0.236931,-0.139767,9.724382
4577046.399460,252,0.011180,-0.008086,1.155054,0.139678,0.044944,5.617224,-0.000000,-0.007491,0.236931,-0.139767,9.724382
4577046.410444,253,0.010984,-0.008086,1.155054,0.139678,0.044944,5.617224,-0.000000,-0.007491,0.236931,-0.139767,9.724382
4577046.422374,254,0.011931,-0.016152,-0.226452,0.557256,0.092085,4.856915,0.000014,-0.022210,0.160599,0.017315,9.682072
4577046.434897,255,0.012523,-0.016152,-0.226452,0.557256,0.092085,4.856915,0.000014,-0.022210,0.160599,0.017315,9.682072
4577046.447429,256,0.012531,-0.016152,-0.226452,0.557256,0.092085,4.856915,0.000014,-0.022210,0.160599,0.017315,9.682072
4577046.459955,257,0.012526,-0.016152,-0.226452,0.557256,0.092085,4.856915,0.000014,-0.022210,0.160599,0.017315,9.682072
4577046.472505,258,0.012551,-0.016152,-0.226452,0.557256,0.092085,4.856915,0.000014,-0.022210,0.160599,0.017315,9.682072
4577046.485364,259,0.012859,-0.016152,-0.226452,0.557256,0.092085,4.856915,0.000014,-0.022210,0.160599,0.017315,9.682072
4577046.497689,260,0.012325,-0.016152,-0.226452,0.557256,0.092085,4.856915,0.000014,-0.022210,0.160599,0.017315,9.682072
4577046.510249,261,0.012560,-0.016152,-0.226452,0.557256,0.092085,4.856915,0.000014,-0.022210,0.160599,0.017315,9.682072
4577046.522788,262,0.012539,-0.016152,-0.226452,0.557256,0.092085,4.856915,0.000014,-0.022210,0.160599,0.017315,9.682072
4577046.535446,263,0.012657,-0.016152,-0.226452,0.557256,0.092085,4.856915,0.000014,-0.022210,0.160599,0.017315,9.682072
4577046.547693,264,0.012248,-0.016152,-0.226452,0.557256,0.092085,4.856915,0.000014,-0.022210,0.160599,0.017315,9.682072
4577046.558393,265,0.010700,-0.013357,-4.644984,-0.016512,0.058970,5.385654,-0.000013,-0.073765,-0.839704,1.048744,9.335459
4577046.570931,266,0.012537,-0.013357,-4.644984,-0.016512,0.058970,5.385654,-0.000013,-0.073765,-0.839704,1.048744,9.335459
4577046.582577,267,0.011646,-0.013357,-4.644984,-0.016512,0.058970,5.385654,-0.000013,-0.073765,-0.839704,1.048744,9.335459
4577046.593877,268,0.011300,-0.013357,-4.644984,-0.016512,0.058970,5.385654,-0.000013,-0.073765,-0.839704,1.048744,9.335459
4577046.604118,269,0.010241,-0.013357,-4.644984,-0.016512,0.058970,5.385654,-0.000013,-0.073765,-0.839704,1.048744,9.335459
4577046.615925,270,0.011807,-0.013357,-4.644984,-0.016512,0.058970,5.385654,-0.000013,-0.073765,-0.839704,1.048744,9.335459
4577046.628445,271,0.012520,-0.013357,-4.644984,-0.016512,0.058970,5.385654,-0.000013,-0.073765,-0.839704,1.048744,9.335459
4577046.639959,272,0.011514,-0.013357,-4.644984,-0.016512,0.058970,5.385654,-0.000013,-0.073765,-0.839704,1.048744,9.335459
4577046.650481,273,0.010522,-0.013357,-4.644984,-0.016512,0.058970,5.385654,-0.000013,-0.073765,-0.839704,1.048744,9.335459
4577046.661146,274,0.010665,-0.013357,-4.644984,-0.016512,0.058970,5.385654,-0.000013,-0.073765,-0.839704,1.048744,9.335459
4577046.673689,275,0.012543,-0.013357,-4.644984,-0.016512,0.058970,5.385654,-0.000013,-0.073765,-0.839704,1.048744,9.335459
4577046.686209,276,0.012520,-0.013357,-4.644984,-0.016512,0.058970,5.385654,-0.000013,-0.073765,-0.839704,1.048744,9.335459
4577046.696684,277,0.010475,-0.013357,-4.644984,-0.016512,0.058970,5.385654,-0.000013,-0.073765,-0.839704,1.048744,9.335459
4577046.707662,278,0.010978,-0.013357,-4.644984,-0.016512,0.058970,5.385654,-0.000013,-0.073765,-0.839704,1.048744,9.335459
4577046.719210,279,0.011548,-0.013357,-4.644984,-0.016512,0.058970,5.385654,-0.000013,-0.073765,-0.839704,1.048744,9.335459
4577046.731738,280,0.012528,-0.013357,-4.644984,-0.016512,0.058970,5.385654,-0.000013,-0.073765,-0.839704,1.048744,9.335459
4577046.744261,281,0.012523,-0.013357,-4.644984,-0.016512,0.058970,5.385654,-0.000013,-0.073765,-0.839704,1.048744,9.335459
4577046.756798,282,0.012537,-0.013357,-4.644984,-0.016512,0.058970,5.385654,-0.000013,-0.073765,-0.839704,1.048744,9.335459
4577046.769324,283,0.012527,-0.014157,-7.455681,-1.719333,0.130770,8.786686,0.000006,0.403457,-1.590416,-1.080892,9.339931
4577046.781304,284,0.011980,-0.014157,-7.455681,-1.719333,0.130770,8.786686,0.000006,0.403457,-1.590416,-1.080892,9.339931
4577046.792084,285,0.010780,-0.014157,-7.455681,-1.719333,0.130770,8.786686,0.000006,0.403457,-1.590416,-1.080892,9.339931
4577046.804629,286,0.012545,-0.014157,-7.455681,-1.719333,0.130770,8.786686,0.000006,0.403457,-1.590416,-1.080892,9.339931
4577046.815917,287,0.011288,-0.014157,-7.455681,-1.719333,0.130770,8.786686,0.000006,0.403457,-1.590416,-1.080892,9.339931
4577046.826543,288,0.010626,-0.014157,-7.455681,-1.719333,0.130770,8.786686,0.000006,0.403457,-1.590416,-1.080892,9.339931
4577046.837059,289,0.010516,-0.014157,-7.455681,-1.719333,0.130770,8.786686,0.000006,0.403457,-1.590416,-1.080892,9.339931
4577046.847315,290,0.010256,-0.014157,-7.455681,-1.719333,0.130770,8.786686,0.000006,0.403457,-1.590416,-1.080892,9.339931
4577046.859856,291,0.012541,-0.014157,-7.455681,-1.719333,0.130770,8.786686,0.000006,0.403457,-1.590416,-1.080892,9.339931
4577046.871843,292,0.011987,-0.014157,-7.455681,-1.719333,0.130770,8.786686,0.000006,0.403457,-1.590416,-1.080892,9.339931
4577046.882902,293,0.011060,-0.017399,-3.873065,-1.167235,0.178805,7.889881,0.000042,-0.123936,-0.700844,-0.697913,9.973264
4577046.893149,294,0.010247,-0.017399,-3.873065,-1.167235,0.178805,7.889881,0.000042,-0.123936,-0.700844,-0.697913,9.973264
4577046.905323,295,0.012173,-0.017399,-3.873065,-1.167235,0.178805,7.889881,0.000042,-0.123936,-0.700844,-0.697913,9.973264
4577046.916120,296,0.010797,-0.017399,-3.873065,-1.167235,0.178805,7.889881,0.000042,-0.123936,-0.700844,-0.697913,9.973264
4577046.927739,297,0.011619,-0.017399,-3.873065,-1.167235,0.178805,7.889881,0.000042,-0.123936,-0.700844,-0.697913,9.973264
4577046.940268,298,0.012529,-0.017399,-3.873065,-1.167235,0.178805,7.889881,0.000042,-0.123936,-0.700844,-0.697913,9.973264
4577046.952794,299,0.012527,-0.017399,-3.873065,-1.167235,0.178805,7.889881,0.000042,-0.123936,-0.700844,-0.697913,9.973264
4577046.965318,300,0.012523,-0.017399,-3.873065,-1.167235,0.178805,7.889881,0.000042,-0.123936,-0.700844,-0.697913,9.973264
4577046.977842,301,0.012524,-0.017399,-3.873065,-1.167235,0.178805,7.889881,0.000042,-0.123936,-0.700844,-0.697913,9.973264
4577046.990366,302,0.012524,-0.017399,-3.873065,-1.167235,0.178805,7.889881,0.000042,-0.123936,-0.700844,-0.697913,9.973264
4577047.001775,303,0.011409,-0.017399,-3.873065,-1.167235,0.178805,7.889881,0.000042,-0.123936,-0.700844,-0.697913,9.973264
4577047.013168,304,0.011393,-0.017399,-3.873065,-1.167235,0.178805,7.889881,0.000042,-0.123936,-0.700844,-0.697913,9.973264
4577047.023764,305,0.010597,-0.017399,-3.873065,-1.167235,0.178805,7.889881,0.000042,-0.123936,-0.700844,-0.697913,9.973264
4577047.035381,306,0.011617,-0.017399,-3.873065,-1.167235,0.178805,7.889881,0.000042,-0.123936,-0.700844,-0.697913,9.973264
4577047.047919,307,0.012538,-0.009775,1.170989,0.456524,0.059860,7.053922,-0.000009,0.222518,0.475452,0.475190,9.532069
4577047.059744,308,0.011825,-0.009775,1.170989,0.456524,0.059860,7.053922,-0.000009,0.222518,0.475452,0.475190,9.532069
4577047.072277,309,0.012533,-0.009775,1.170989,0.456524,0.059860,7.053922,-0.000009,0.222518,0.475452,0.475190,9.532069
4577047.083864,310,0.011587,-0.009775,1.170989,0.456524,0.059860,7.053922,-0.000009,0.222518,0.475452,0.475190,9.532069
4577047.094062,311,0.010198,-0.009775,1.170989,0.456524,0.059860,7.053922,-0.000009,0.222518,0.475452,0.475190,9.532069
4577047.106587,312,0.012525,-0.009775,1.170989,0.456524,0.059860,7.053922,-0.000009,0.222518,0.475452,0.475190,9.532069
4577047.118662,313,0.012074,-0.009775,1.170989,0.456524,0.059860,7.053922,-0.000009,0.222518,0.475452,0.475190,9.532069
4577047.132324,314,0.013662,-0.009775,1.170989,0.456524,0.059860,7.053922,-0.000009,0.222518,0.475452,0.475190,9.532069
4577047.144858,315,0.012534,-0.009775,1.170989,0.456524,0.059860,7.053922,-0.000009,0.222518,0.475452,0.475190,9.532069
4577047.156213,316,0.011355,-0.009775,1.170989,0.456524,0.059860,7.053922,-0.000009,0.222518,0.475452,0.475190,9.532069
4577047.167146,317,0.010933,-0.009775,1.170989,0.456524,0.059860,7.053922,-0.000009,0.222518,0.475452,0.475190,9.532069
4577047.178141,318,0.010995,-0.009775,1.170989,0.456524,0.059860,7.053922,-0.000009,0.222518,0.475452,0.475190,9.532069
4577047.190665,319,0.012524,0.001549,1.165094,2.555435,0.049892,2.979084,0.000055,-0.094594,0.116895,-0.603781,9.803214
4577047.201866,320,0.011200,0.001549,1.165094,2.555435,0.049892,2.979084,0.000055,-0.094594,0.116895,-0.603781,9.803214
4577047.213455,321,0.011589,0.001549,1.165094,2.555435,0.049892,2.979084,0.000055,-0.094594,0.116895,-0.603781,9.803214
4577047.223653,322,0.010198,0.001549,1.165094,2.555435,0.049892,2.979084,0.000055,-0.094594,0.116895,-0.603781,9.803214
4577047.234958,323,0.011304,0.001549,1.165094,2.555435,0.049892,2.979084,0.000055,-0.094594,0.116895,-0.603781,9.803214
4577047.247490,324,0.012532,0.001549,1.165094,2.555435,0.049892,2.979084,0.000055,-0.094594,0.116895,-0.603781,9.803214
4577047.257969,325,0.010479,0.001549,1.165094,2.555435,0.049892,2.979084,0.000055,-0.094594,0.116895,-0.603781,9.803214
4577047.269279,326,0.011310,0.001549,1.165094,2.555435,0.049892,2.979084,0.000055,-0.094594,0.116895,-0.603781,9.803214
4577047.280194,327,0.010915,0.001549,1.165094,2.555435,0.049892,2.979084,0.000055,-0.094594,0.116895,-0.603781,9.803214
4577047.292718,328,0.012524,0.001549,1.165094,2.555435,0.049892,2.979084,0.000055,-0.094594,0.116895,-0.603781,9.803214
4577047.305253,329,0.012535,0.001549,1.165094,2.555435,0.049892,2.979084,0.000055,-0.094594,0.116895,-0.603781,9.803214
4577047.316521,330,0.011269,0.001549,1.165094,2.555435,0.049892,2.979084,0.000055,-0.094594,0.116895,-0.603781,9.803214
4577047.327929,331,0.011407,0.001549,1.165094,2.555435,0.049892,2.979084,0.000055,-0.094594,0.116895,-0.603781,9.803214
4577047.340453,332,0.012524,0.001549,1.165094,2.555435,0.049892,2.979084,0.000055,-0.094594,0.116895,-0.603781,9.803214
4577047.352081,333,0.011629,0.000229,-3.263948,0.075582,-0.004266,6.534752,-0.000003,-0.064718,-0.731810,0.115975,9.656135
4577047.363613,334,0.011532,0.000229,-3.263948,0.075582,-0.004266,6.534752,-0.000003,-0.064718,-0.731810,0.115975,9.656135
4577047.375788,335,0.012175,0.000229,-3.263948,0.075582,-0.004266,6.534752,-0.000003,-0.064718,-0.731810,0.115975,9.656135
4577047.388147,336,0.012360,0.000229,-3.263948,0.075582,-0.004266,6.534752,-0.000003,-0.064718,-0.731810,0.115975,9.656135
4577047.400337,337,0.012190,0.000229,-3.263948,0.075582,-0.004266,6.534752,-0.000003,-0.064718,-0.731810,0.115975,9.656135
4577047.412875,338,0.012538,0.000229,-3.263948,0.075582,-0.004266,6.534752,-0.000003,-0.064718,-0.731810,0.115975,9.656135
4577047.423005,339,0.010130,0.000229,-3.263948,0.075582,-0.004266,6.534752,-0.000003,-0.064718,-0.731810,0.115975,9.656135
4577047.434575,340,0.011570,0.000229,-3.263948,0.075582,-0.004266,6.534752,-0.000003,-0.064718,-0.731810,0.115975,9.656135
4577047.447104,341,0.012530,0.000229,-3.263948,0.075582,-0.004266,6.534752,-0.000003,-0.064718,-0.731810,0.115975,9.656135
4577047.458571,342,0.011466,0.000229,-3.263948,0.075582,-0.004266,6.534752,-0.000003,-0.064718,-0.731810,0.115975,9.656135
4577047.471105,343,0.012534,0.000229,-3.263948,0.075582,-0.004266,6.534752,-0.000003,-0.064718,-0.731810,0.115975,9.656135
4577047.483824,344,0.012719,0.000229,-3.263948,0.075582,-0.004266,6.534752,-0.000003,-0.064718,-0.731810,0.115975,9.656135
4577047.493923,345,0.010099,0.000229,-3.263948,0.075582,-0.004266,6.534752,-0.000003,-0.064718,-0.731810,0.115975,9.656135
4577047.506457,346,0.012534,0.000229,-3.263948,0.075582,-0.004266,6.534752,-0.000003,-0.064718,-0.731810,0.115975,9.656135
4577047.518384,347,0.011928,0.008920,-5.866918,-1.792540,-0.074422,8.789303,0.000004,-0.223776,-1.500584,2.214100,10.146418
4577047.530921,348,0.012537,0.008920,-5.866918,-1.792540,-0.074422,8.789303,0.000004,-0.223776,-1.500584,2.214100,10.146418
4577047.541312,349,0.010391,0.008920,-5.866918,-1.792540,-0.074422,8.789303,0.000004,-0.223776,-1.500584,2.214100,10.146418
4577047.552016,350,0.010704,0.008920,-5.866918,-1.792540,-0.074422,8.789303,0.000004,-0.223776,-1.500584,2.214100,10.146418
4577047.562519,351,0.010503,0.008920,-5.866918,-1.792540,-0.074422,8.789303,0.000004,-0.223776,-1.500584,2.214100,10.146418
4577047.573300,352,0.010782,0.008920,-5.866918,-1.792540,-0.074422,8.789303,0.000004,-0.223776,-1.500584,2.214100,10.146418
4577047.585861,353,0.012561,0.008920,-5.866918,-1.792540,-0.074422,8.789303,0.000004,-0.223776,-1.500584,2.214100,10.146418
4577047.596846,354,0.010984,0.008920,-5.866918,-1.792540,-0.074422,8.789303,0.000004,-0.223776,-1.500584,2.214100,10.146418
4577047.607049,355,0.010203,0.008920,-5.866918,-1.792540,-0.074422,8.789303,0.000004,-0.223776,-1.500584,2.214100,10.146418
4577047.618209,356,0.011160,0.008920,-5.866918,-1.792540,-0.074422,8.789303,0.000004,-0.223776,-1.500584,2.214100,10.146418
4577047.629917,357,0.011708,0.008920,-5.866918,-1.792540,-0.074422,8.789303,0.000004,-0.223776,-1.500584,2.214100,10.146418
4577047.642453,358,0.012536,0.008920,-5.866918,-1.792540,-0.074422,8.789303,0.000004,-0.223776,-1.500584,2.214100,10.146418
4577047.654250,359,0.011797,0.008920,-5.866918,-1.792540,-0.074422,8.789303,0.000004,-0.223776,-1.500584,2.214100,10.146418
4577047.665899,360,0.011649,0.008920,-5.866918,-1.792540,-0.074422,8.789303,0.000004,-0.223776,-1.500584,2.214100,10.146418
4577047.677780,361,0.011881,0.008920,-5.866918,-1.792540,-0.074422,8.789303,0.000004,-0.223776,-1.500584,2.214100,10.146418
4577047.688610,362,0.010830,-0.017232,-3.472497,0.356612,0.079034,4.755552,-0.000003,0.084029,-0.489834,1.237493,9.419575
4577047.701207,363,0.012597,-0.017232,-3.472497,0.356612,0.079034,4.755552,-0.000003,0.084029,-0.489834,1.237493,9.419575
4577047.713744,364,0.012537,-0.017232,-3.472497,0.356612,0.079034,4.755552,-0.000003,0.084029,-0.489834,1.237493,9.419575
4577047.726279,365,0.012535,-0.017232,-3.472497,0.356612,0.079034,4.755552,-0.000003,0.084029,-0.489834,1.237493,9.419575
4577047.737129,366,0.010850,-0.017232,-3.472497,0.356612,0.079034,4.755552,-0.000003,0.084029,-0.489834,1.237493,9.419575
4577047.749667,367,0.012538,-0.017232,-3.472497,0.356612,0.079034,4.755552,-0.000003,0.084029,-0.489834,1.237493,9.419575
4577047.762201,368,0.012534,-0.017232,-3.472497,0.356612,0.079034,4.755552,-0.000003,0.084029,-0.489834,1.237493,9.419575
4577047.774580,369,0.012380,-0.017232,-3.472497,0.356612,0.079034,4.755552,-0.000003,0.084029,-0.489834,1.237493,9.419575
4577047.786476,370,0.011896,-0.017232,-3.472497,0.356612,0.079034,4.755552,-0.000003,0.084029,-0.489834,1.237493,9.419575
4577047.799003,371,0.012527,-0.017232,-3.472497,0.356612,0.079034,4.755552,-0.000003,0.084029,-0.489834,1.237493,9.419575
4577047.811334,372,0.012331,-0.017232,-3.472497,0.356612,0.079034,4.755552,-0.000003,0.084029,-0.489834,1.237493,9.419575
4577047.823321,373,0.011987,-0.014912,0.570514,1.212502,0.064530,5.458111,-0.000017,0.382778,0.195355,-1.122092,9.389976
4577047.835850,374,0.012530,-0.014912,0.570514,1.212502,0.064530,5.458111,-0.000017,0.382778,0.195355,-1.122092,9.389976
4577047.849809,375,0.013959,-0.014912,0.570514,1.212502,0.064530,5.458111,-0.000017,0.382778,0.195355,-1.122092,9.389976
4577047.861425,376,0.011616,-0.014912,0.570514,1.212502,0.064530,5.458111,-0.000017,0.382778,0.195355,-1.122092,9.389976
4577047.872300,377,0.010875,-0.014912,0.570514,1.212502,0.064530,5.458111,-0.000017,0.382778,0.195355,-1.122092,9.389976
4577047.883749,378,0.011449,-0.014912,0.570514,1.212502,0.064530,5.458111,-0.000017,0.382778,0.195355,-1.122092,9.389976
4577047.896286,379,0.012537,-0.014912,0.570514,1.212502,0.064530,5.458111,-0.000017,0.382778,0.195355,-1.122092,9.389976
4577047.908739,380,0.012453,-0.014912,0.570514,1.212502,0.064530,5.458111,-0.000017,0.382778,0.195355,-1.122092,9.389976
4577047.920312,381,0.011573,-0.014912,0.570514,1.212502,0.064530,5.458111,-0.000017,0.382778,0.195355,-1.122092,9.389976
4577047.932843,382,0.012532,-0.014912,0.570514,1.212502,0.064530,5.458111,-0.000017,0.382778,0.195355,-1.122092,9.389976
4577047.944164,383,0.011321,-0.014912,0.570514,1.212502,0.064530,5.458111,-0.000017,0.382778,0.195355,-1.122092,9.389976
4577047.956669,384,0.012505,-0.014912,0.570514,1.212502,0.064530,5.458111,-0.000017,0.382778,0.195355,-1.122092,9.389976
4577047.967809,385,0.011140,-0.014912,0.570514,1.212502,0.064530,5.458111,-0.000017,0.382778,0.195355,-1.122092,9.389976
4577047.979484,386,0.011675,-0.004437,0.971134,0.134556,0.028277,5.968115,0.000002,-0.321397,0.552023,0.357139,9.573922
4577047.992013,387,0.012528,-0.004437,0.971134,0.134556,0.028277,5.968115,0.000002,-0.321397,0.552023,0.357139,9.573922
4577048.004535,388,0.012522,-0.004437,0.971134,0.134556,0.028277,5.968115,0.000002,-0.321397,0.552023,0.357139,9.573922
4577048.017063,389,0.012528,-0.004437,0.971134,0.134556,0.028277,5.968115,0.000002,-0.321397,0.552023,0.357139,9.573922
4577048.027307,390,0.010244,-0.004437,0.971134,0.134556,0.028277,5.968115,0.000002,-0.321397,0.552023,0.357139,9.573922
4577048.038819,391,0.011512,-0.004437,0.971134,0.134556,0.028277,5.968115,0.000002,-0.321397,0.552023,0.357139,9.573922
4577048.051359,392,0.012540,-0.004437,0.971134,0.134556,0.028277,5.968115,0.000002,-0.321397,0.552023,0.357139,9.573922
4577048.063894,393,0.012535,-0.004437,0.971134,0.134556,0.028277,5.968115,0.000002,-0.321397,0.552023,0.357139,9.573922
4577048.076418,394,0.012525,-0.004437,0.971134,0.134556,0.028277,5.968115,0.000002,-0.321397,0.552023,0.357139,9.573922
4577048.088942,395,0.012523,-0.004437,0.971134,0.134556,0.028277,5.968115,0.000002,-0.321397,0.552023,0.357139,9.573922
4577048.101135,396,0.012194,-0.004437,0.971134,0.134556,0.028277,5.968115,0.000002,-0.321397,0.552023,0.357139,9.573922
4577048.112307,397,0.011172,-0.004437,0.971134,0.134556,0.028277,5.968115,0.000002,-0.321397,0.552023,0.357139,9.573922
4577048.124812,398,0.012505,-0.004437,0.971134,0.134556,0.028277,5.968115,0.000002,-0.321397,0.552023,0.357139,9.573922
4577048.136560,399,0.011748,-0.004437,0.971134,0.134556,0.028277,5.968115,0.000002,-0.321397,0.552023,0.357139,9.573922
4577048.149092,400,0.012532,-0.006256,-3.422309,-0.426301,0.008108,4.867366,-0.000022,0.174641,-0.887201,0.634418,9.990587
4577048.160906,401,0.011814,-0.006256,-3.422309,-0.426301,0.008108,4.867366,-0.000022,0.174641,-0.887201,0.634418,9.990587
4577048.173150,402,0.012244,-0.006256,-3.422309,-0.426301,0.008108,4.867366,-0.000022,0.174641,-0.887201,0.634418,9.990587
4577048.183944,403,0.010793,-0.006256,-3.422309,-0.426301,0.008108,4.867366,-0.000022,0.174641,-0.887201,0.634418,9.990587
4577048.195236,404,0.011292,-0.006256,-3.422309,-0.426301,0.008108,4.867366,-0.000022,0.174641,-0.887201,0.634418,9.990587
4577048.207670,405,0.012434,-0.006256,-3.422309,-0.426301,0.008108,4.867366,-0.000022,0.174641,-0.887201,0.634418,9.990587
4577048.218704,406,0.011034,-0.006256,-3.422309,-0.426301,0.008108,4.867366,-0.000022,0.174641,-0.887201,0.634418,9.990587
4577048.229294,407,0.010590,-0.006256,-3.422309,-0.426301,0.008108,4.867366,-0.000022,0.174641,-0.887201,0.634418,9.990587
4577048.241007,408,0.011712,-0.006256,-3.422309,-0.426301,0.008108,4.867366,-0.000022,0.174641,-0.887201,0.634418,9.990587
4577048.253540,409,0.012533,-0.006256,-3.422309,-0.426301,0.008108,4.867366,-0.000022,0.174641,-0.887201,0.634418,9.990587
4577048.266094,410,0.012554,-0.006256,-3.422309,-0.426301,0.008108,4.867366,-0.000022,0.174641,-0.887201,0.634418,9.990587
4577048.276727,411,0.010633,-0.006256,-3.422309,-0.426301,0.008108,4.867366,-0.000022,0.174641,-0.887201,0.634418,9.990587
4577048.286951,412,0.010225,-0.006256,-3.422309,-0.426301,0.008108,4.867366,-0.000022,0.174641,-0.887201,0.634418,9.990587
4577048.299274,413,0.012322,-0.006256,-3.422309,-0.426301,0.008108,4.867366,-0.000022,0.174641,-0.887201,0.634418,9.990587
4577048.311802,414,0.012529,-0.006256,-3.422309,-0.426301,0.008108,4.867366,-0.000022,0.174641,-0.887201,0.634418,9.990587
4577048.323146,415,0.011344,-0.004583,-7.691785,-1.407360,-0.011061,4.940167,-0.000034,-0.357629,-0.957603,0.579750,9.184461
4577048.335675,416,0.012529,-0.004583,-7.691785,-1.407360,-0.011061,4.940167,-0.000034,-0.357629,-0.957603,0.579750,9.184461
4577048.347370,417,0.011695,-0.004583,-7.691785,-1.407360,-0.011061,4.940167,-0.000034,-0.357629,-0.957603,0.579750,9.184461
4577048.357618,418,0.010248,-0.004583,-7.691785,-1.407360,-0.011061,4.940167,-0.000034,-0.357629,-0.957603,0.579750,9.184461
4577048.370167,419,0.012549,-0.004583,-7.691785,-1.407360,-0.011061,4.940167,-0.000034,-0.357629,-0.957603,0.579750,9.184461
4577048.381576,420,0.011409,-0.004583,-7.691785,-1.407360,-0.011061,4.940167,-0.000034,-0.357629,-0.957603,0.579750,9.184461
4577048.392020,421,0.010444,-0.004583,-7.691785,-1.407360,-0.011061,4.940167,-0.000034,-0.357629,-0.957603,0.579750,9.184461
4577048.404027,422,0.012007,-0.004583,-7.691785,-1.407360,-0.011061,4.940167,-0.000034,-0.357629,-0.957603,0.579750,9.184461
4577048.414248,423,0.010221,-0.004583,-7.691785,-1.407360,-0.011061,4.940167,-0.000034,-0.357629,-0.957603,0.579750,9.184461
4577048.426778,424,0.012531,-0.004583,-7.691785,-1.407360,-0.011061,4.940167,-0.000034,-0.357629,-0.957603,0.579750,9.184461
4577048.439300,425,0.012522,-0.004583,-7.691785,-1.407360,-0.011061,4.940167,-0.000034,-0.357629,-0.957603,0.579750,9.184461
4577048.450286,426,0.010985,-0.009798,-7.428783,0.251800,0.120543,10.697306,0.000016,-0.040791,-1.712724,-2.212567,9.235009
4577048.461574,427,0.011288,-0.009798,-7.428783,0.251800,0.120543,10.697306,0.000016,-0.040791,-1.712724,-2.212567,9.235009
4577048.473085,428,0.011512,-0.009798,-7.428783,0.251800,0.120543,10.697306,0.000016,-0.040791,-1.712724,-2.212567,9.235009
4577048.485035,429,0.011949,-0.009798,-7.428783,0.251800,0.120543,10.697306,0.000016,-0.040791,-1.712724,-2.212567,9.235009
4577048.497021,430,0.011987,-0.009798,-7.428783,0.251800,0.120543,10.697306,0.000016,-0.040791,-1.712724,-2.212567,9.235009
4577048.509548,431,0.012527,-0.009798,-7.428783,0.251800,0.120543,10.697306,0.000016,-0.040791,-1.712724,-2.212567,9.235009
4577048.522069,432,0.012520,-0.009798,-7.428783,0.251800,0.120543,10.697306,0.000016,-0.040791,-1.712724,-2.212567,9.235009
4577048.533098,433,0.011030,-0.009798,-7.428783,0.251800,0.120543,10.697306,0.000016,-0.040791,-1.712724,-2.212567,9.235009
4577048.543191,434,0.010092,-0.009798,-7.428783,0.251800,0.120543,10.697306,0.000016,-0.040791,-1.712724,-2.212567,9.235009
4577048.553432,435,0.010241,-0.009798,-7.428783,0.251800,0.120543,10.697306,0.000016,-0.040791,-1.712724,-2.212567,9.235009
4577048.565980,436,0.012548,-0.009798,-7.428783,0.251800,0.120543,10.697306,0.000016,-0.040791,-1.712724,-2.212567,9.235009
4577048.585441,437,0.019462,-0.009798,-7.428783,0.251800,0.120543,10.697306,0.000016,-0.040791,-1.712724,-2.212567,9.235009
4577048.599603,438,0.014162,-0.009798,-7.428783,0.251800,0.120543,10.697306,0.000016,-0.040791,-1.712724,-2.212567,9.235009
4577048.612224,439,0.012621,-0.009798,-7.428783,0.251800,0.120543,10.697306,0.000016,-0.040791,-1.712724,-2.212567,9.235009
4577048.624737,440,0.012513,-0.008869,-1.408617,1.306970,0.034120,10.809201,-0.000062,0.161589,-0.146757,0.373261,9.554339
4577048.637254,441,0.012517,-0.008869,-1.408617,1.306970,0.034120,10.809201,-0.000062,0.161589,-0.146757,0.373261,9.554339
4577048.649773,442,0.012519,-0.008869,-1.408617,1.306970,0.034120,10.809201,-0.000062,0.161589,-0.146757,0.373261,9.554339
4577048.662290,443,0.012517,-0.008869,-1.408617,1.306970,0.034120,10.809201,-0.000062,0.161589,-0.146757,0.373261,9.554339
4577048.674800,444,0.012510,-0.008869,-1.408617,1.306970,0.034120,10.809201,-0.000062,0.161589,-0.146757,0.373261,9.554339
4577048.687314,445,0.012514,-0.008869,-1.408617,1.306970,0.034120,10.809201,-0.000062,0.161589,-0.146757,0.373261,9.554339
4577048.699831,446,0.012517,-0.008869,-1.408617,1.306970,0.034120,10.809201,-0.000062,0.161589,-0.146757,0.373261,9.554339
4577048.712347,447,0.012516,-0.008869,-1.408617,1.306970,0.034120,10.809201,-0.000062,0.161589,-0.146757,0.373261,9.554339
4577048.724855,448,0.012508,-0.008869,-1.408617,1.306970,0.034120,10.809201,-0.000062,0.161589,-0.146757,0.373261,9.554339
4577048.737404,449,0.012549,-0.008869,-1.408617,1.306970,0.034120,10.809201,-0.000062,0.161589,-0.146757,0.373261,9.554339
4577048.749255,450,0.011851,-0.008869,-1.408617,1.306970,0.034120,10.809201,-0.000062,0.161589,-0.146757,0.373261,9.554339
4577048.761795,451,0.012540,-0.001055,4.224535,1.517274,-0.003955,1.927828,-0.000006,0.405043,0.893562,-0.345164,9.974992
4577048.773444,452,0.011649,-0.001055,4.224535,1.517274,-0.003955,1.927828,-0.000006,0.405043,0.893562,-0.345164,9.974992
4577048.785982,453,0.012538,-0.001055,4.224535,1.517274,-0.003955,1.927828,-0.000006,0.405043,0.893562,-0.345164,9.974992
4577048.798513,454,0.012531,-0.001055,4.224535,1.517274,-0.003955,1.927828,-0.000006,0.405043,0.893562,-0.345164,9.974992
4577048.810440,455,0.011927,-0.001055,4.224535,1.517274,-0.003955,1.927828,-0.000006,0.405043,0.893562,-0.345164,9.974992
4577048.822896,456,0.012456,-0.001055,4.224535,1.517274,-0.003955,1.927828,-0.000006,0.405043,0.893562,-0.345164,9.974992
4577048.835466,457,0.012571,-0.001055,4.224535,1.517274,-0.003955,1.927828,-0.000006,0.405043,0.893562,-0.345164,9.974992
4577048.848002,458,0.012536,-0.001055,4.224535,1.517274,-0.003955,1.927828,-0.000006,0.405043,0.893562,-0.345164,9.974992
4577048.860541,459,0.012539,-0.001055,4.224535,1.517274,-0.003955,1.927828,-0.000006,0.405043,0.893562,-0.345164,9.974992
4577048.873076,460,0.012535,-0.001055,4.224535,1.517274,-0.003955,1.927828,-0.000006,0.405043,0.893562,-0.345164,9.974992
4577048.885279,461,0.012203,-0.001055,4.224535,1.517274,-0.003955,1.927828,-0.000006,0.405043,0.893562,-0.345164,9.974992
4577048.897813,462,0.012534,-0.001055,4.224535,1.517274,-0.003955,1.927828,-0.000006,0.405043,0.893562,-0.345164,9.974992
4577048.908796,463,0.010983,-0.001055,4.224535,1.517274,-0.003955,1.927828,-0.000006,0.405043,0.893562,-0.345164,9.974992
4577048.921379,464,0.012583,-0.001055,4.224535,1.517274,-0.003955,1.927828,-0.000006,0.405043,0.893562,-0.345164,9.974992
4577048.933909,465,0.012530,-0.001714,1.513953,0.627523,0.033405,8.176973,0.000019,-0.188365,0.434486,0.124816,9.535095
4577048.946441,466,0.012532,-0.001714,1.513953,0.627523,0.033405,8.176973,0.000019,-0.188365,0.434486,0.124816,9.535095
4577048.958495,467,0.012054,-0.001714,1.513953,0.627523,0.033405,8.176973,0.000019,-0.188365,0.434486,0.124816,9.535095
4577048.971081,468,0.012586,-0.001714,1.513953,0.627523,0.033405,8.176973,0.000019,-0.188365,0.434486,0.124816,9.535095
4577048.982174,469,0.011093,-0.001714,1.513953,0.627523,0.033405,8.176973,0.000019,-0.188365,0.434486,0.124816,9.535095
4577048.994706,470,0.012532,-0.001714,1.513953,0.627523,0.033405,8.176973,0.000019,-0.188365,0.434486,0.124816,9.535095
4577049.006671,471,0.011965,-0.001714,1.513953,0.627523,0.033405,8.176973,0.000019,-0.188365,0.434486,0.124816,9.535095
4577049.018484,472,0.011813,-0.001714,1.513953,0.627523,0.033405,8.176973,0.000019,-0.188365,0.434486,0.124816,9.535095
4577049.028584,473,0.010100,-0.001714,1.513953,0.627523,0.033405,8.176973,0.000019,-0.188365,0.434486,0.124816,9.535095
4577049.041138,474,0.012555,-0.001714,1.513953,0.627523,0.033405,8.176973,0.000019,-0.188365,0.434486,0.124816,9.535095
4577049.053688,475,0.012550,-0.001714,1.513953,0.627523,0.033405,8.176973,0.000019,-0.188365,0.434486,0.124816,9.535095
4577049.066278,476,0.012589,-0.001714,1.513953,0.627523,0.033405,8.176973,0.000019,-0.188365,0.434486,0.124816,9.535095
4577049.078817,477,0.012539,-0.001714,1.513953,0.627523,0.033405,8.176973,0.000019,-0.188365,0.434486,0.124816,9.535095
4577049.090313,478,0.011496,-0.006066,-5.347321,1.350906,0.054434,2.764538,0.000038,-0.105756,-1.003326,-0.076226,9.497585
4577049.101989,479,0.011676,-0.006066,-5.347321,1.350906,0.054434,2.764538,0.000038,-0.105756,-1.003326,-0.076226,9.497585
4577049.114515,480,0.012526,-0.006066,-5.347321,1.350906,0.054434,2.764538,0.000038,-0.105756,-1.003326,-0.076226,9.497585
4577049.124685,481,0.010170,-0.006066,-5.347321,1.350906,0.054434,2.764538,0.000038,-0.105756,-1.003326,-0.076226,9.497585
4577049.136613,482,0.011928,-0.006066,-5.347321,1.350906,0.054434,2.764538,0.000038,-0.105756,-1.003326,-0.076226,9.497585
4577049.148618,483,0.012005,-0.006066,-5.347321,1.350906,0.054434,2.764538,0.000038,-0.105756,-1.003326,-0.076226,9.497585
4577049.161152,484,0.012534,-0.006066,-5.347321,1.350906,0.054434,2.764538,0.000038,-0.105756,-1.003326,-0.076226,9.497585
4577049.173694,485,0.012542,-0.006066,-5.347321,1.350906,0.054434,2.764538,0.000038,-0.105756,-1.003326,-0.076226,9.497585
4577049.186127,486,0.012432,-0.006066,-5.347321,1.350906,0.054434,2.764538,0.000038,-0.105756,-1.003326,-0.076226,9.497585
4577049.197423,487,0.011296,-0.006066,-5.347321,1.350906,0.054434,2.764538,0.000038,-0.105756,-1.003326,-0.076226,9.497585
4577049.209948,488,0.012525,-0.006066,-5.347321,1.350906,0.054434,2.764538,0.000038,-0.105756,-1.003326,-0.076226,9.497585
4577049.222272,489,0.012324,-0.006066,-5.347321,1.350906,0.054434,2.764538,0.000038,-0.105756,-1.003326,-0.076226,9.497585
4577049.233026,490,0.010754,-0.006066,-5.347321,1.350906,0.054434,2.764538,0.000038,-0.105756,-1.003326,-0.076226,9.497585
4577049.245558,491,0.012532,-0.015778,-8.513704,-1.533980,0.131588,6.811008,0.000024,0.364112,-1.818916,0.299663,9.738760
4577049.257685,492,0.012127,-0.015778,-8.513704,-1.533980,0.131588,6.811008,0.000024,0.364112,-1.818916,0.299663,9.738760
4577049.270228,493,0.012542,-0.015778,-8.513704,-1.533980,0.131588,6.811008,0.000024,0.364112,-1.818916,0.299663,9.738760
4577049.281943,494,0.011715,-0.015778,-8.513704,-1.533980,0.131588,6.811008,0.000024,0.364112,-1.818916,0.299663,9.738760
4577049.293352,495,0.011409,-0.015778,-8.513704,-1.533980,0.131588,6.811008,0.000024,0.364112,-1.818916,0.299663,9.738760
4577049.305874,496,0.012522,-0.015778,-8.513704,-1.533980,0.131588,6.811008,0.000024,0.364112,-1.818916,0.299663,9.738760
4577049.318402,497,0.012528,-0.015778,-8.513704,-1.533980,0.131588,6.811008,0.000024,0.364112,-1.818916,0.299663,9.738760
4577049.330923,498,0.012521,-0.015778,-8.513704,-1.533980,0.131588,6.811008,0.000024,0.364112,-1.818916,0.299663,9.738760
4577049.343449,499,0.012526,-0.015778,-8.513704,-1.533980,0.131588,6.811008,0.000024,0.364112,-1.818916,0.299663,9.738760
4577049.355972,500,0.012523,-0.015778,-8.513704,-1.533980,0.131588,6.811008,0.000024,0.364112,-1.818916,0.299663,9.738760
4577049.368511,501,0.012539,-0.015778,-8.513704,-1.533980,0.131588,6.811008,0.000024,0.364112,-1.818916,0.299663,9.738760
4577049.380079,502,0.011568,-0.015778,-8.513704,-1.533980,0.131588,6.811008,0.000024,0.364112,-1.818916,0.299663,9.738760
4577049.392633,503,0.012555,-0.015778,-8.513704,-1.533980,0.131588,6.811008,0.000024,0.364112,-1.818916,0.299663,9.738760
4577049.405164,504,0.012530,-0.009970,-2.874766,2.189483,-0.049398,5.342677,-0.000103,-0.068229,-0.158075,-1.302542,9.688911
4577049.416135,505,0.010971,-0.009970,-2.874766,2.189483,-0.049398,5.342677,-0.000103,-0.068229,-0.158075,-1.302542,9.688911
4577049.426419,506,0.010284,-0.009970,-2.874766,2.189483,-0.049398,5.342677,-0.000103,-0.068229,-0.158075,-1.302542,9.688911
4577049.438953,507,0.012534,-0.009970,-2.874766,2.189483,-0.049398,5.342677,-0.000103,-0.068229,-0.158075,-1.302542,9.688911
4577049.451417,508,0.012464,-0.009970,-2.874766,2.189483,-0.049398,5.342677,-0.000103,-0.068229,-0.158075,-1.302542,9.688911
4577049.463955,509,0.012538,-0.009970,-2.874766,2.189483,-0.049398,5.342677,-0.000103,-0.068229,-0.158075,-1.302542,9.688911
4577049.474171,510,0.010216,-0.009970,-2.874766,2.189483,-0.049398,5.342677,-0.000103,-0.068229,-0.158075,-1.302542,9.688911
4577049.486404,511,0.012233,-0.009970,-2.874766,2.189483,-0.049398,5.342677,-0.000103,-0.068229,-0.158075,-1.302542,9.688911
4577049.498970,512,0.012566,-0.009970,-2.874766,2.189483,-0.049398,5.342677,-0.000103,-0.068229,-0.158075,-1.302542,9.688911
4577049.510995,513,0.012024,-0.009970,-2.874766,2.189483,-0.049398,5.342677,-0.000103,-0.068229,-0.158075,-1.302542,9.688911
4577049.523004,514,0.012009,-0.009970,-2.874766,2.189483,-0.049398,5.342677,-0.000103,-0.068229,-0.158075,-1.302542,9.688911
4577049.535587,515,0.012584,-0.009970,-2.874766,2.189483,-0.049398,5.342677,-0.000103,-0.068229,-0.158075,-1.302542,9.688911
4577049.547098,516,0.011511,-0.009970,-2.874766,2.189483,-0.049398,5.342677,-0.000103,-0.068229,-0.158075,-1.302542,9.688911
4577049.558865,517,0.011767,-0.009970,-2.874766,2.189483,-0.049398,5.342677,-0.000103,-0.068229,-0.158075,-1.302542,9.688911
4577049.571397,518,0.012533,-0.009970,-2.874766,2.189483,-0.049398,5.342677,-0.000103,-0.068229,-0.158075,-1.302542,9.688911
4577049.583667,519,0.012269,-0.009970,-2.874766,2.189483,-0.049398,5.342677,-0.000103,-0.068229,-0.158075,-1.302542,9.688911
4577049.594234,520,0.010567,-0.010497,3.776170,0.584467,0.054658,5.881834,-0.000007,0.084126,1.137916,0.929155,9.583383
4577049.606769,521,0.012535,-0.010497,3.776170,0.584467,0.054658,5.881834,-0.000007,0.084126,1.137916,0.929155,9.583383
4577049.619293,522,0.012524,-0.010497,3.776170,0.584467,0.054658,5.881834,-0.000007,0.084126,1.137916,0.929155,9.583383
4577049.631572,523,0.012279,-0.010497,3.776170,0.584467,0.054658,5.881834,-0.000007,0.084126,1.137916,0.929155,9.583383
4577049.643016,524,0.011444,-0.010497,3.776170,0.584467,0.054658,5.881834,-0.000007,0.084126,1.137916,0.929155,9.583383
4577049.654282,525,0.011266,-0.010497,3.776170,0.584467,0.054658,5.881834,-0.000007,0.084126,1.137916,0.929155,9.583383
4577049.665953,526,0.011671,-0.010497,3.776170,0.584467,0.054658,5.881834,-0.000007,0.084126,1.137916,0.929155,9.583383
4577049.678477,527,0.012524,-0.010497,3.776170,0.584467,0.054658,5.881834,-0.000007,0.084126,1.137916,0.929155,9.583383
4577049.691009,528,0.012532,-0.010497,3.776170,0.584467,0.054658,5.881834,-0.000007,0.084126,1.137916,0.929155,9.583383
4577049.703538,529,0.012528,-0.000647,2.157317,2.818419,0.104742,2.562575,0.000103,-0.023976,0.319320,-0.192207,9.190743
4577049.716070,530,0.012533,-0.000647,2.157317,2.818419,0.104742,2.562575,0.000103,-0.023976,0.319320,-0.192207,9.190743
4577049.726627,531,0.010557,-0.000647,2.157317,2.818419,0.104742,2.562575,0.000103,-0.023976,0.319320,-0.192207,9.190743
4577049.738571,532,0.011943,-0.000647,2.157317,2.818419,0.104742,2.562575,0.000103,-0.023976,0.319320,-0.192207,9.190743
4577049.751104,533,0.012533,-0.000647,2.157317,2.818419,0.104742,2.562575,0.000103,-0.023976,0.319320,-0.192207,9.190743
4577049.762679,534,0.011575,-0.000647,2.157317,2.818419,0.104742,2.562575,0.000103,-0.023976,0.319320,-0.192207,9.190743
4577049.774302,535,0.011623,-0.000647,2.157317,2.818419,0.104742,2.562575,0.000103,-0.023976,0.319320,-0.192207,9.190743
4577049.786846,536,0.012544,-0.000647,2.157317,2.818419,0.104742,2.562575,0.000103,-0.023976,0.319320,-0.192207,9.190743
4577049.798237,537,0.011392,-0.000647,2.157317,2.818419,0.104742,2.562575,0.000103,-0.023976,0.319320,-0.192207,9.190743
4577049.810775,538,0.012538,-0.000647,2.157317,2.818419,0.104742,2.562575,0.000103,-0.023976,0.319320,-0.192207,9.190743
4577049.823485,539,0.012710,-0.000647,2.157317,2.818419,0.104742,2.562575,0.000103,-0.023976,0.319320,-0.192207,9.190743
4577049.833760,540,0.010276,-0.000647,2.157317,2.818419,0.104742,2.562575,0.000103,-0.023976,0.319320,-0.192207,9.190743
4577049.845032,541,0.011271,-0.000647,2.157317,2.818419,0.104742,2.562575,0.000103,-0.023976,0.319320,-0.192207,9.190743
4577049.855567,542,0.010535,-0.000647,2.157317,2.818419,0.104742,2.562575,0.000103,-0.023976,0.319320,-0.192207,9.190743
4577049.866963,543,0.011396,-0.000647,2.157317,2.818419,0.104742,2.562575,0.000103,-0.023976,0.319320,-0.192207,9.190743
4577049.879512,544,0.012550,-0.000647,2.157317,2.818419,0.104742,2.562575,0.000103,-0.023976,0.319320,-0.192207,9.190743
4577049.892046,545,0.012534,-0.000647,2.157317,2.818419,0.104742,2.562575,0.000103,-0.023976,0.319320,-0.192207,9.190743
4577049.903441,546,0.011394,-0.011908,-5.092331,1.345480,0.080976,3.549957,0.000039,-0.123535,-1.010580,-0.613517,9.925341
4577049.916097,547,0.012656,-0.011908,-5.092331,1.345480,0.080976,3.549957,0.000039,-0.123535,-1.010580,-0.613517,9.925341
4577049.928624,548,0.012527,-0.011908,-5.092331,1.345480,0.080976,3.549957,0.000039,-0.123535,-1.010580,-0.613517,9.925341
4577049.938786,549,0.010162,-0.011908,-5.092331,1.345480,0.080976,3.549957,0.000039,-0.123535,-1.010580,-0.613517,9.925341
4577049.949476,550,0.010690,-0.011908,-5.092331,1.345480,0.080976,3.549957,0.000039,-0.123535,-1.010580,-0.613517,9.925341
4577049.962046,551,0.012570,-0.011908,-5.092331,1.345480,0.080976,3.549957,0.000039,-0.123535,-1.010580,-0.613517,9.925341
4577049.973754,552,0.011708,-0.011908,-5.092331,1.345480,0.080976,3.549957,0.000039,-0.123535,-1.010580,-0.613517,9.925341
4577049.983826,553,0.010072,-0.011908,-5.092331,1.345480,0.080976,3.549957,0.000039,-0.123535,-1.010580,-0.613517,9.925341
4577049.996382,554,0.012556,-0.011908,-5.092331,1.345480,0.080976,3.549957,0.000039,-0.123535,-1.010580,-0.613517,9.925341
4577050.006639,555,0.010258,-0.011908,-5.092331,1.345480,0.080976,3.549957,0.000039,-0.123535,-1.010580,-0.613517,9.925341
4577050.019168,556,0.012529,-0.011908,-5.092331,1.345480,0.080976,3.549957,0.000039,-0.123535,-1.010580,-0.613517,9.925341
4577050.032363,557,0.013195,-0.012194,-8.148516,1.557594,0.074795,5.655428,0.000006,-0.093873,-1.314851,-0.343931,9.415471
4577050.044909,558,0.012545,-0.012194,-8.148516,1.557594,0.074795,5.655428,0.000006,-0.093873,-1.314851,-0.343931,9.415471
4577050.056759,559,0.011851,-0.012194,-8.148516,1.557594,0.074795,5.655428,0.000006,-0.093873,-1.314851,-0.343931,9.415471
4577050.069300,560,0.012541,-0.012194,-8.148516,1.557594,0.074795,5.655428,0.000006,-0.093873,-1.314851,-0.343931,9.415471
4577050.081847,561,0.012546,-0.012194,-8.148516,1.557594,0.074795,5.655428,0.000006,-0.093873,-1.314851,-0.343931,9.415471
4577050.094233,562,0.012386,-0.012194,-8.148516,1.557594,0.074795,5.655428,0.000006,-0.093873,-1.314851,-0.343931,9.415471
4577050.106560,563,0.012327,-0.012194,-8.148516,1.557594,0.074795,5.655428,0.000006,-0.093873,-1.314851,-0.343931,9.415471
4577050.119104,564,0.012544,-0.012194,-8.148516,1.557594,0.074795,5.655428,0.000006,-0.093873,-1.314851,-0.343931,9.415471
4577050.131634,565,0.012530,-0.012194,-8.148516,1.557594,0.074795,5.655428,0.000006,-0.093873,-1.314851,-0.343931,9.415471
4577050.143777,566,0.012142,-0.012194,-8.148516,1.557594,0.074795,5.655428,0.000006,-0.093873,-1.314851,-0.343931,9.415471
4577050.154331,567,0.010554,-0.012194,-8.148516,1.557594,0.074795,5.655428,0.000006,-0.093873,-1.314851,-0.343931,9.415471
4577050.166204,568,0.011873,-0.012194,-8.148516,1.557594,0.074795,5.655428,0.000006,-0.093873,-1.314851,-0.343931,9.415471
4577050.178743,569,0.012539,-0.012194,-8.148516,1.557594,0.074795,5.655428,0.000006,-0.093873,-1.314851,-0.343931,9.415471
4577050.190993,570,0.012250,-0.009651,-2.791289,1.586917,0.036282,10.527461,-0.000065,0.223186,-0.578916,-0.515409,9.514581
4577050.203525,571,0.012532,-0.009651,-2.791289,1.586917,0.036282,10.527461,-0.000065,0.223186,-0.578916,-0.515409,9.514581
4577050.213726,572,0.010201,-0.009651,-2.791289,1.586917,0.036282,10.527461,-0.000065,0.223186,-0.578916,-0.515409,9.514581
4577050.225936,573,0.012209,-0.009651,-2.791289,1.586917,0.036282,10.527461,-0.000065,0.223186,-0.578916,-0.515409,9.514581
4577050.238357,574,0.012421,-0.009651,-2.791289,1.586917,0.036282,10.527461,-0.000065,0.223186,-0.578916,-0.515409,9.514581
4577050.250480,575,0.012124,-0.009651,-2.791289,1.586917,0.036282,10.527461,-0.000065,0.223186,-0.578916,-0.515409,9.514581
4577050.260554,576,0.010073,-0.009651,-2.791289,1.586917,0.036282,10.527461,-0.000065,0.223186,-0.578916,-0.515409,9.514581
4577050.272622,577,0.012069,-0.009651,-2.791289,1.586917,0.036282,10.527461,-0.000065,0.223186,-0.578916,-0.515409,9.514581
4577050.283491,578,0.010868,-0.009651,-2.791289,1.586917,0.036282,10.527461,-0.000065,0.223186,-0.578916,-0.515409,9.514581
4577050.296045,579,0.012554,-0.009651,-2.791289,1.586917,0.036282,10.527461,-0.000065,0.223186,-0.578916,-0.515409,9.514581
4577050.307654,580,0.011609,-0.009651,-2.791289,1.586917,0.036282,10.527461,-0.000065,0.223186,-0.578916,-0.515409,9.514581
4577050.320197,581,0.012543,-0.009651,-2.791289,1.586917,0.036282,10.527461,-0.000065,0.223186,-0.578916,-0.515409,9.514581
4577050.332737,582,0.012541,-0.009651,-2.791289,1.586917,0.036282,10.527461,-0.000065,0.223186,-0.578916,-0.515409,9.514581
4577050.343529,583,0.010791,-0.009651,-2.791289,1.586917,0.036282,10.527461,-0.000065,0.223186,-0.578916,-0.515409,9.514581
4577050.356070,584,0.012541,-0.012628,3.914215,-0.297847,0.039008,1.955463,0.000014,-0.097272,0.937863,0.432882,9.890327
4577050.367406,585,0.011336,-0.012628,3.914215,-0.297847,0.039008,1.955463,0.000014,-0.097272,0.937863,0.432882,9.890327
4577050.379422,586,0.012017,-0.012628,3.914215,-0.297847,0.039008,1.955463,0.000014,-0.097272,0.937863,0.432882,9.890327
4577050.391983,587,0.012561,-0.012628,3.914215,-0.297847,0.039008,1.955463,0.000014,-0.097272,0.937863,0.432882,9.890327
4577050.404551,588,0.012568,-0.012628,3.914215,-0.297847,0.039008,1.955463,0.000014,-0.097272,0.937863,0.432882,9.890327
4577050.417111,589,0.012560,-0.012628,3.914215,-0.297847,0.039008,1.955463,0.000014,-0.097272,0.937863,0.432882,9.890327
4577050.429673,590,0.012562,-0.012628,3.914215,-0.297847,0.039008,1.955463,0.000014,-0.097272,0.937863,0.432882,9.890327
4577050.442223,591,0.012550,-0.012628,3.914215,-0.297847,0.039008,1.955463,0.000014,-0.097272,0.937863,0.432882,9.890327
4577050.453162,592,0.010939,-0.012628,3.914215,-0.297847,0.039008,1.955463,0.000014,-0.097272,0.937863,0.432882,9.890327
4577050.464929,593,0.011767,-0.012628,3.914215,-0.297847,0.039008,1.955463,0.000014,-0.097272,0.937863,0.432882,9.890327
4577050.477750,594,0.012821,-0.012628,3.914215,-0.297847,0.039008,1.955463,0.000014,-0.097272,0.937863,0.432882,9.890327
4577050.490282,595,0.012532,-0.012628,3.914215,-0.297847,0.039008,1.955463,0.000014,-0.097272,0.937863,0.432882,9.890327
4577050.502819,596,0.012537,0.000886,4.094038,1.019702,0.021261,2.934252,0.000024,-0.018200,0.826249,-0.248690,8.937207
4577050.514910,597,0.012091,0.000886,4.094038,1.019702,0.021261,2.934252,0.000024,-0.018200,0.826249,-0.248690,8.937207
4577050.526674,598,0.011764,0.000886,4.094038,1.019702,0.021261,2.934252,0.000024,-0.018200,0.826249,-0.248690,8.937207
4577050.539208,599,0.012534,0.000886,4.094038,1.019702,0.021261,2.934252,0.000024,-0.018200,0.826249,-0.248690,8.937207
4577050.551751,600,0.012543,0.000886,4.094038,1.019702,0.021261,2.934252,0.000024,-0.018200,0.826249,-0.248690,8.937207
4577050.564279,601,0.012528,0.000886,4.094038,1.019702,0.021261,2.934252,0.000024,-0.018200,0.826249,-0.248690,8.937207
4577050.576819,602,0.012540,0.000886,4.094038,1.019702,0.021261,2.934252,0.000024,-0.018200,0.826249,-0.248690,8.937207
4577050.587565,603,0.010746,0.000886,4.094038,1.019702,0.021261,2.934252,0.000024,-0.018200,0.826249,-0.248690,8.937207
4577050.598246,604,0.010681,0.000886,4.094038,1.019702,0.021261,2.934252,0.000024,-0.018200,0.826249,-0.248690,8.937207
4577050.608791,605,0.010545,0.000886,4.094038,1.019702,0.021261,2.934252,0.000024,-0.018200,0.826249,-0.248690,8.937207
4577050.621331,606,0.012541,0.000886,4.094038,1.019702,0.021261,2.934252,0.000024,-0.018200,0.826249,-0.248690,8.937207
4577050.632666,607,0.011334,0.000886,4.094038,1.019702,0.021261,2.934252,0.000024,-0.018200,0.826249,-0.248690,8.937207
4577050.645127,608,0.012462,0.000886,4.094038,1.019702,0.021261,2.934252,0.000024,-0.018200,0.826249,-0.248690,8.937207
4577050.655507,609,0.010379,0.001602,-4.723470,2.105195,0.091092,9.681375,0.000107,-0.174581,-1.245302,-1.197744,9.734145
4577050.667182,610,0.011675,0.001602,-4.723470,2.105195,0.091092,9.681375,0.000107,-0.174581,-1.245302,-1.197744,9.734145
4577050.679706,611,0.012524,0.001602,-4.723470,2.105195,0.091092,9.681375,0.000107,-0.174581,-1.245302,-1.197744,9.734145
4577050.692230,612,0.012525,0.001602,-4.723470,2.105195,0.091092,9.681375,0.000107,-0.174581,-1.245302,-1.197744,9.734145
4577050.703454,613,0.011224,0.001602,-4.723470,2.105195,0.091092,9.681375,0.000107,-0.174581,-1.245302,-1.197744,9.734145
4577050.714906,614,0.011452,0.001602,-4.723470,2.105195,0.091092,9.681375,0.000107,-0.174581,-1.245302,-1.197744,9.734145
4577050.726508,615,0.011602,0.001602,-4.723470,2.105195,0.091092,9.681375,0.000107,-0.174581,-1.245302,-1.197744,9.734145
4577050.739034,616,0.012526,0.001602,-4.723470,2.105195,0.091092,9.681375,0.000107,-0.174581,-1.245302,-1.197744,9.734145
4577050.751557,617,0.012522,0.001602,-4.723470,2.105195,0.091092,9.681375,0.000107,-0.174581,-1.245302,-1.197744,9.734145
4577050.764083,618,0.012526,0.001602,-4.723470,2.105195,0.091092,9.681375,0.000107,-0.174581,-1.245302,-1.197744,9.734145
4577050.776621,619,0.012538,0.001602,-4.723470,2.105195,0.091092,9.681375,0.000107,-0.174581,-1.245302,-1.197744,9.734145
4577050.789150,620,0.012529,0.001602,-4.723470,2.105195,0.091092,9.681375,0.000107,-0.174581,-1.245302,-1.197744,9.734145
4577050.799329,621,0.010180,0.001602,-4.723470,2.105195,0.091092,9.681375,0.000107,-0.174581,-1.245302,-1.197744,9.734145
4577050.809864,622,0.010534,0.001602,-4.723470,2.105195,0.091092,9.681375,0.000107,-0.174581,-1.245302,-1.197744,9.734145
4577050.822386,623,0.012522,-0.022697,-9.797605,1.142123,0.054288,2.252504,0.000003,0.254262,-1.932887,0.296541,9.467360
4577050.832570,624,0.010184,-0.022697,-9.797605,1.142123,0.054288,2.252504,0.000003,0.254262,-1.932887,0.296541,9.467360
4577050.844227,625,0.011657,-0.022697,-9.797605,1.142123,0.054288,2.252504,0.000003,0.254262,-1.932887,0.296541,9.467360
4577050.856805,626,0.012578,-0.022697,-9.797605,1.142123,0.054288,2.252504,0.000003,0.254262,-1.932887,0.296541,9.467360
4577050.869139,627,0.012334,-0.022697,-9.797605,1.142123,0.054288,2.252504,0.000003,0.254262,-1.932887,0.296541,9.467360
4577050.881575,628,0.012435,-0.022697,-9.797605,1.142123,0.054288,2.252504,0.000003,0.254262,-1.932887,0.296541,9.467360
4577050.893945,629,0.012370,-0.022697,-9.797605,1.142123,0.054288,2.252504,0.000003,0.254262,-1.932887,0.296541,9.467360
4577050.906488,630,0.012544,-0.022697,-9.797605,1.142123,0.054288,2.252504,0.000003,0.254262,-1.932887,0.296541,9.467360
4577050.917490,631,0.011001,-0.022697,-9.797605,1.142123,0.054288,2.252504,0.000003,0.254262,-1.932887,0.296541,9.467360
4577050.927922,632,0.010432,-0.022697,-9.797605,1.142123,0.054288,2.252504,0.000003,0.254262,-1.932887,0.296541,9.467360
4577050.940444,633,0.012522,-0.022697,-9.797605,1.142123,0.054288,2.252504,0.000003,0.254262,-1.932887,0.296541,9.467360
4577050.952764,634,0.012320,-0.022697,-9.797605,1.142123,0.054288,2.252504,0.000003,0.254262,-1.932887,0.296541,9.467360
4577050.963173,635,0.010408,-0.022697,-9.797605,1.142123,0.054288,2.252504,0.000003,0.254262,-1.932887,0.296541,9.467360
4577050.975700,636,0.012527,-0.022697,-9.797605,1.142123,0.054288,2.252504,0.000003,0.254262,-1.932887,0.296541,9.467360
4577050.988226,637,0.012526,-0.015580,-5.281521,1.665963,0.062661,7.285023,-0.000051,0.203522,-0.697401,-0.666352,9.628061
4577051.000287,638,0.012061,-0.015580,-5.281521,1.665963,0.062661,7.285023,-0.000051,0.203522,-0.697401,-0.666352,9.628061
4577051.012516,639,0.012229,-0.015580,-5.281521,1.665963,0.062661,7.285023,-0.000051,0.203522,-0.697401,-0.666352,9.628061
4577051.024916,640,0.012400,-0.015580,-5.281521,1.665963,0.062661,7.285023,-0.000051,0.203522,-0.697401,-0.666352,9.628061
4577051.035023,641,0.010108,-0.015580,-5.281521,1.665963,0.062661,7.285023,-0.000051,0.203522,-0.697401,-0.666352,9.628061
4577051.045173,642,0.010149,-0.015580,-5.281521,1.665963,0.062661,7.285023,-0.000051,0.203522,-0.697401,-0.666352,9.628061
4577051.056642,643,0.011469,-0.015580,-5.281521,1.665963,0.062661,7.285023,-0.000051,0.203522,-0.697401,-0.666352,9.628061
4577051.069183,644,0.012542,-0.015580,-5.281521,1.665963,0.062661,7.285023,-0.000051,0.203522,-0.697401,-0.666352,9.628061
4577051.081706,645,0.012522,-0.015580,-5.281521,1.665963,0.062661,7.285023,-0.000051,0.203522,-0.697401,-0.666352,9.628061
4577051.094248,646,0.012542,-0.015580,-5.281521,1.665963,0.062661,7.285023,-0.000051,0.203522,-0.697401,-0.666352,9.628061
4577051.106796,647,0.012548,-0.015580,-5.281521,1.665963,0.062661,7.285023,-0.000051,0.203522,-0.697401,-0.666352,9.628061
4577051.118721,648,0.011925,-0.015580,-5.281521,1.665963,0.062661,7.285023,-0.000051,0.203522,-0.697401,-0.666352,9.628061
4577051.128946,649,0.010225,-0.013811,3.095333,2.151159,-0.026460,3.748176,-0.000078,0.219525,0.662648,-0.542410,9.626004
4577051.141485,650,0.012539,-0.013811,3.095333,2.151159,-0.026460,3.748176,-0.000078,0.219525,0.662648,-0.542410,9.626004
4577051.154028,651,0.012543,-0.013811,3.095333,2.151159,-0.026460,3.748176,-0.000078,0.219525,0.662648,-0.542410,9.626004
4577051.165371,652,0.011343,-0.013811,3.095333,2.151159,-0.026460,3.748176,-0.000078,0.219525,0.662648,-0.542410,9.626004
4577051.177912,653,0.012541,-0.013811,3.095333,2.151159,-0.026460,3.748176,-0.000078,0.219525,0.662648,-0.542410,9.626004
4577051.190447,654,0.012535,-0.013811,3.095333,2.151159,-0.026460,3.748176,-0.000078,0.219525,0.662648,-0.542410,9.626004
4577051.201236,655,0.010789,-0.013811,3.095333,2.151159,-0.026460,3.748176,-0.000078,0.219525,0.662648,-0.542410,9.626004
4577051.213765,656,0.012529,-0.013811,3.095333,2.151159,-0.026460,3.748176,-0.000078,0.219525,0.662648,-0.542410,9.626004
4577051.226298,657,0.012534,-0.013811,3.095333,2.151159,-0.026460,3.748176,-0.000078,0.219525,0.662648,-0.542410,9.626004
4577051.238831,658,0.012533,-0.013811,3.095333,2.151159,-0.026460,3.748176,-0.000078,0.219525,0.662648,-0.542410,9.626004
4577051.251376,659,0.012545,-0.013811,3.095333,2.151159,-0.026460,3.748176,-0.000078,0.219525,0.662648,-0.542410,9.626004
4577051.262472,660,0.011097,-0.013811,3.095333,2.151159,-0.026460,3.748176,-0.000078,0.219525,0.662648,-0.542410,9.626004
4577051.274589,661,0.012116,-0.013811,3.095333,2.151159,-0.026460,3.748176,-0.000078,0.219525,0.662648,-0.542410,9.626004
4577051.286189,662,0.011600,0.007471,5.400819,-1.265105,-0.097506,9.632304,-0.000026,-0.020428,0.864376,0.464574,9.466338
4577051.298745,663,0.012557,0.007471,5.400819,-1.265105,-0.097506,9.632304,-0.000026,-0.020428,0.864376,0.464574,9.466338
4577051.309635,664,0.010890,0.007471,5.400819,-1.265105,-0.097506,9.632304,-0.000026,-0.020428,0.864376,0.464574,9.466338
4577051.321566,665,0.011932,0.007471,5.400819,-1.265105,-0.097506,9.632304,-0.000026,-0.020428,0.864376,0.464574,9.466338
4577051.333144,666,0.011577,0.007471,5.400819,-1.265105,-0.097506,9.632304,-0.000026,-0.020428,0.864376,0.464574,9.466338
4577051.344227,667,0.011084,0.007471,5.400819,-1.265105,-0.097506,9.632304,-0.000026,-0.020428,0.864376,0.464574,9.466338
4577051.356626,668,0.012398,0.007471,5.400819,-1.265105,-0.097506,9.632304,-0.000026,-0.020428,0.864376,0.464574,9.466338
4577051.368977,669,0.012351,0.007471,5.400819,-1.265105,-0.097506,9.632304,-0.000026,-0.020428,0.864376,0.464574,9.466338
4577051.381082,670,0.012105,0.007471,5.400819,-1.265105,-0.097506,9.632304,-0.000026,-0.020428,0.864376,0.464574,9.466338
4577051.393621,671,0.012539,0.007471,5.400819,-1.265105,-0.097506,9.632304,-0.000026,-0.020428,0.864376,0.464574,9.466338
4577051.403928,672,0.010307,0.007471,5.400819,-1.265105,-0.097506,9.632304,-0.000026,-0.020428,0.864376,0.464574,9.466338
4577051.416041,673,0.012113,0.007471,5.400819,-1.265105,-0.097506,9.632304,-0.000026,-0.020428,0.864376,0.464574,9.466338
4577051.428631,674,0.012590,0.007471,5.400819,-1.265105,-0.097506,9.632304,-0.000026,-0.020428,0.864376,0.464574,9.466338
4577051.439617,675,0.010986,0.007471,5.400819,-1.265105,-0.097506,9.632304,-0.000026,-0.020428,0.864376,0.464574,9.466338
4577051.450463,676,0.010846,-0.004711,-1.588258,2.507190,0.200590,8.544211,0.000160,0.154253,-0.345059,-1.314663,8.917369
4577051.462989,677,0.012527,-0.004711,-1.588258,2.507190,0.200590,8.544211,0.000160,0.154253,-0.345059,-1.314663,8.917369
4577051.473337,678,0.010347,-0.004711,-1.588258,2.507190,0.200590,8.544211,0.000160,0.154253,-0.345059,-1.314663,8.917369
4577051.485872,679,0.012535,-0.004711,-1.588258,2.507190,0.200590,8.544211,0.000160,0.154253,-0.345059,-1.314663,8.917369
4577051.496563,680,0.010691,-0.004711,-1.588258,2.507190,0.200590,8.544211,0.000160,0.154253,-0.345059,-1.314663,8.917369
4577051.508727,681,0.012164,-0.004711,-1.588258,2.507190,0.200590,8.544211,0.000160,0.154253,-0.345059,-1.314663,8.917369
4577051.520254,682,0.011527,-0.004711,-1.588258,2.507190,0.200590,8.544211,0.000160,0.154253,-0.345059,-1.314663,8.917369
4577051.532788,683,0.012534,-0.004711,-1.588258,2.507190,0.200590,8.544211,0.000160,0.154253,-0.345059,-1.314663,8.917369
4577051.545408,684,0.012621,-0.004711,-1.588258,2.507190,0.200590,8.544211,0.000160,0.154253,-0.345059,-1.314663,8.917369
4577051.557676,685,0.012267,-0.004711,-1.588258,2.507190,0.200590,8.544211,0.000160,0.154253,-0.345059,-1.314663,8.917369
4577051.570210,686,0.012534,-0.004711,-1.588258,2.507190,0.200590,8.544211,0.000160,0.154253,-0.345059,-1.314663,8.917369
4577051.582762,687,0.012552,-0.004711,-1.588258,2.507190,0.200590,8.544211,0.000160,0.154253,-0.345059,-1.314663,8.917369
4577051.594148,688,0.011386,-0.004711,-1.588258,2.507190,0.200590,8.544211,0.000160,0.154253,-0.345059,-1.314663,8.917369
4577051.606686,689,0.012538,-0.008941,-9.376572,-4.549177,-0.113396,2.348235,-0.000134,0.127039,-2.362518,0.827062,10.062332
4577051.619217,690,0.012531,-0.008941,-9.376572,-4.549177,-0.113396,2.348235,-0.000134,0.127039,-2.362518,0.827062,10.062332
4577051.631754,691,0.012537,-0.008941,-9.376572,-4.549177,-0.113396,2.348235,-0.000134,0.127039,-2.362518,0.827062,10.062332
4577051.644289,692,0.012535,-0.008941,-9.376572,-4.549177,-0.113396,2.348235,-0.000134,0.127039,-2.362518,0.827062,10.062332
4577051.656128,693,0.011839,-0.008941,-9.376572,-4.549177,-0.113396,2.348235,-0.000134,0.127039,-2.362518,0.827062,10.062332
4577051.667843,694,0.011715,-0.008941,-9.376572,-4.549177,-0.113396,2.348235,-0.000134,0.127039,-2.362518,0.827062,10.062332
4577051.679821,695,0.011978,-0.008941,-9.376572,-4.549177,-0.113396,2.348235,-0.000134,0.127039,-2.362518,0.827062,10.062332
4577051.692039,696,0.012219,-0.008941,-9.376572,-4.549177,-0.113396,2.348235,-0.000134,0.127039,-2.362518,0.827062,10.062332
4577051.703430,697,0.011390,-0.008941,-9.376572,-4.549177,-0.113396,2.348235,-0.000134,0.127039,-2.362518,0.827062,10.062332
4577051.715953,698,0.012523,-0.008941,-9.376572,-4.549177,-0.113396,2.348235,-0.000134,0.127039,-2.362518,0.827062,10.062332
4577051.728480,699,0.012527,-0.008941,-9.376572,-4.549177,-0.113396,2.348235,-0.000134,0.127039,-2.362518,0.827062,10.062332
4577051.741075,700,0.012595,-0.008941,-9.376572,-4.549177,-0.113396,2.348235,-0.000134,0.127039,-2.362518,0.827062,10.062332
4577051.753405,701,0.012330,-0.008941,-9.376572,-4.549177,-0.113396,2.348235,-0.000134,0.127039,-2.362518,0.827062,10.062332
4577051.765905,702,0.012500,-0.020617,-7.438301,-4.249727,0.395779,9.803858,0.000194,0.302558,-0.877062,2.590070,10.159254
4577051.778437,703,0.012532,-0.020617,-7.438301,-4.249727,0.395779,9.803858,0.000194,0.302558,-0.877062,2.590070,10.159254
4577051.790965,704,0.012528,-0.020617,-7.438301,-4.249727,0.395779,9.803858,0.000194,0.302558,-0.877062,2.590070,10.159254
4577051.801987,705,0.011023,-0.020617,-7.438301,-4.249727,0.395779,9.803858,0.000194,0.302558,-0.877062,2.590070,10.159254
4577051.814174,706,0.012187,-0.020617,-7.438301,-4.249727,0.395779,9.803858,0.000194,0.302558,-0.877062,2.590070,10.159254
4577051.826705,707,0.012531,-0.020617,-7.438301,-4.249727,0.395779,9.803858,0.000194,0.302558,-0.877062,2.590070,10.159254
4577051.839244,708,0.012539,-0.020617,-7.438301,-4.249727,0.395779,9.803858,0.000194,0.302558,-0.877062,2.590070,10.159254
4577051.851785,709,0.012542,-0.020617,-7.438301,-4.249727,0.395779,9.803858,0.000194,0.302558,-0.877062,2.590070,10.159254
4577051.864322,710,0.012536,-0.020617,-7.438301,-4.249727,0.395779,9.803858,0.000194,0.302558,-0.877062,2.590070,10.159254
4577051.876850,711,0.012528,-0.020617,-7.438301,-4.249727,0.395779,9.803858,0.000194,0.302558,-0.877062,2.590070,10.159254
4577051.889381,712,0.012531,-0.020617,-7.438301,-4.249727,0.395779,9.803858,0.000194,0.302558,-0.877062,2.590070,10.159254
4577051.901410,713,0.012029,-0.020617,-7.438301,-4.249727,0.395779,9.803858,0.000194,0.302558,-0.877062,2.590070,10.159254
4577051.914004,714,0.012594,-0.020617,-7.438301,-4.249727,0.395779,9.803858,0.000194,0.302558,-0.877062,2.590070,10.159254
4577051.926004,715,0.012000,0.011941,0.672665,1.449447,-0.156897,7.106093,-0.000072,0.296670,0.316834,0.051102,9.609356
4577051.937336,716,0.011332,0.011941,0.672665,1.449447,-0.156897,7.106093,-0.000072,0.296670,0.316834,0.051102,9.609356
4577051.948611,717,0.011275,0.011941,0.672665,1.449447,-0.156897,7.106093,-0.000072,0.296670,0.316834,0.051102,9.609356
4577051.961184,718,0.012573,0.011941,0.672665,1.449447,-0.156897,7.106093,-0.000072,0.296670,0.316834,0.051102,9.609356
4577051.972583,719,0.011399,0.011941,0.672665,1.449447,-0.156897,7.106093,-0.000072,0.296670,0.316834,0.051102,9.609356
4577051.984161,720,0.011578,0.011941,0.672665,1.449447,-0.156897,7.106093,-0.000072,0.296670,0.316834,0.051102,9.609356
4577051.996020,721,0.011859,0.011941,0.672665,1.449447,-0.156897,7.106093,-0.000072,0.296670,0.316834,0.051102,9.609356
4577052.007911,722,0.011891,0.011941,0.672665,1.449447,-0.156897,7.106093,-0.000072,0.296670,0.316834,0.051102,9.609356
4577052.020491,723,0.012579,0.011941,0.672665,1.449447,-0.156897,7.106093,-0.000072,0.296670,0.316834,0.051102,9.609356
4577052.031664,724,0.011173,0.011941,0.672665,1.449447,-0.156897,7.106093,-0.000072,0.296670,0.316834,0.051102,9.609356
4577052.044202,725,0.012538,0.011941,0.672665,1.449447,-0.156897,7.106093,-0.000072,0.296670,0.316834,0.051102,9.609356
4577052.056797,726,0.012595,0.011941,0.672665,1.449447,-0.156897,7.106093,-0.000072,0.296670,0.316834,0.051102,9.609356
4577052.069114,727,0.012317,0.011941,0.672665,1.449447,-0.156897,7.106093,-0.000072,0.296670,0.316834,0.051102,9.609356
4577052.081106,728,0.011992,0.027480,4.862090,1.695296,-0.045852,1.859267,0.000005,0.155750,0.159068,0.535495,10.174094
4577052.093650,729,0.012544,0.027480,4.862090,1.695296,-0.045852,1.859267,0.000005,0.155750,0.159068,0.535495,10.174094
4577052.106237,730,0.012587,0.027480,4.862090,1.695296,-0.045852,1.859267,0.000005,0.155750,0.159068,0.535495,10.174094
4577052.117844,731,0.011607,0.027480,4.862090,1.695296,-0.045852,1.859267,0.000005,0.155750,0.159068,0.535495,10.174094
4577052.130378,732,0.012534,0.027480,4.862090,1.695296,-0.045852,1.859267,0.000005,0.155750,0.159068,0.535495,10.174094
4577052.141014,733,0.010636,0.027480,4.862090,1.695296,-0.045852,1.859267,0.000005,0.155750,0.159068,0.535495,10.174094
4577052.153548,734,0.012534,0.027480,4.862090,1.695296,-0.045852,1.859267,0.000005,0.155750,0.159068,0.535495,10.174094
4577052.164399,735,0.010851,0.027480,4.862090,1.695296,-0.045852,1.859267,0.000005,0.155750,0.159068,0.535495,10.174094
4577052.176924,736,0.012525,0.027480,4.862090,1.695296,-0.045852,1.859267,0.000005,0.155750,0.159068,0.535495,10.174094
4577052.187367,737,0.010443,0.027480,4.862090,1.695296,-0.045852,1.859267,0.000005,0.155750,0.159068,0.535495,10.174094
4577052.199250,738,0.011883,0.027480,4.862090,1.695296,-0.045852,1.859267,0.000005,0.155750,0.159068,0.535495,10.174094
4577052.211775,739,0.012525,0.027480,4.862090,1.695296,-0.045852,1.859267,0.000005,0.155750,0.159068,0.535495,10.174094
4577052.222951,740,0.011176,0.027480,4.862090,1.695296,-0.045852,1.859267,0.000005,0.155750,0.159068,0.535495,10.174094
4577052.235514,741,0.012563,0.011898,1.831052,2.979445,0.025731,8.824167,0.000131,0.000000,0.230124,-1.786499,9.398835
4577052.248042,742,0.012527,0.011898,1.831052,2.979445,0.025731,8.824167,0.000131,0.000000,0.230124,-1.786499,9.398835
4577052.260572,743,0.012531,0.011898,1.831052,2.979445,0.025731,8.824167,0.000131,0.000000,0.230124,-1.786499,9.398835
4577052.273104,744,0.012532,0.011898,1.831052,2.979445,0.025731,8.824167,0.000131,0.000000,0.230124,-1.786499,9.398835
4577052.284817,745,0.011713,0.011898,1.831052,2.979445,0.025731,8.824167,0.000131,0.000000,0.230124,-1.786499,9.398835
4577052.297115,746,0.012298,0.011898,1.831052,2.979445,0.025731,8.824167,0.000131,0.000000,0.230124,-1.786499,9.398835
4577052.308790,747,0.011675,0.011898,1.831052,2.979445,0.025731,8.824167,0.000131,0.000000,0.230124,-1.786499,9.398835
4577052.321319,748,0.012529,0.011898,1.831052,2.979445,0.025731,8.824167,0.000131,0.000000,0.230124,-1.786499,9.398835
4577052.331436,749,0.010117,0.011898,1.831052,2.979445,0.025731,8.824167,0.000131,0.000000,0.230124,-1.786499,9.398835
4577052.343653,750,0.012217,0.011898,1.831052,2.979445,0.025731,8.824167,0.000131,0.000000,0.230124,-1.786499,9.398835
4577052.356182,751,0.012529,0.011898,1.831052,2.979445,0.025731,8.824167,0.000131,0.000000,0.230124,-1.786499,9.398835
4577052.368707,752,0.012525,0.011898,1.831052,2.979445,0.025731,8.824167,0.000131,0.000000,0.230124,-1.786499,9.398835
4577052.379633,753,0.010926,0.011898,1.831052,2.979445,0.025731,8.824167,0.000131,0.000000,0.230124,-1.786499,9.398835
4577052.393021,754,0.013388,0.000979,-6.107497,-0.360175,-0.047009,2.735357,-0.000044,0.104766,-1.071076,1.485938,9.438818
4577052.405231,755,0.012210,0.000979,-6.107497,-0.360175,-0.047009,2.735357,-0.000044,0.104766,-1.071076,1.485938,9.438818
4577052.417123,756,0.011893,0.000979,-6.107497,-0.360175,-0.047009,2.735357,-0.000044,0.104766,-1.071076,1.485938,9.438818
4577052.427290,757,0.010166,0.000979,-6.107497,-0.360175,-0.047009,2.735357,-0.000044,0.104766,-1.071076,1.485938,9.438818
4577052.439832,758,0.012542,0.000979,-6.107497,-0.360175,-0.047009,2.735357,-0.000044,0.104766,-1.071076,1.485938,9.438818
4577052.452367,759,0.012534,0.000979,-6.107497,-0.360175,-0.047009,2.735357,-0.000044,0.104766,-1.071076,1.485938,9.438818
4577052.464920,760,0.012553,0.000979,-6.107497,-0.360175,-0.047009,2.735357,-0.000044,0.104766,-1.071076,1.485938,9.438818
4577052.476377,761,0.011458,0.000979,-6.107497,-0.360175,-0.047009,2.735357,-0.000044,0.104766,-1.071076,1.485938,9.438818
4577052.488917,762,0.012540,0.000979,-6.107497,-0.360175,-0.047009,2.735357,-0.000044,0.104766,-1.071076,1.485938,9.438818
4577052.499194,763,0.010276,0.000979,-6.107497,-0.360175,-0.047009,2.735357,-0.000044,0.104766,-1.071076,1.485938,9.438818
4577052.511721,764,0.012527,0.000979,-6.107497,-0.360175,-0.047009,2.735357,-0.000044,0.104766,-1.071076,1.485938,9.438818
4577052.521909,765,0.010189,0.000979,-6.107497,-0.360175,-0.047009,2.735357,-0.000044,0.104766,-1.071076,1.485938,9.438818
4577052.534058,766,0.012149,0.000979,-6.107497,-0.360175,-0.047009,2.735357,-0.000044,0.104766,-1.071076,1.485938,9.438818
4577052.546578,767,0.012520,-0.005730,-8.918677,0.601220,0.052096,5.982065,0.000018,0.009147,-1.579227,0.159771,8.942252
4577052.557659,768,0.011081,-0.005730,-8.918677,0.601220,0.052096,5.982065,0.000018,0.009147,-1.579227,0.159771,8.942252
4577052.570196,769,0.012537,-0.005730,-8.918677,0.601220,0.052096,5.982065,0.000018,0.009147,-1.579227,0.159771,8.942252
4577052.582585,770,0.012389,-0.005730,-8.918677,0.601220,0.052096,5.982065,0.000018,0.009147,-1.579227,0.159771,8.942252
4577052.594234,771,0.011649,-0.005730,-8.918677,0.601220,0.052096,5.982065,0.000018,0.009147,-1.579227,0.159771,8.942252
4577052.604371,772,0.010138,-0.005730,-8.918677,0.601220,0.052096,5.982065,0.000018,0.009147,-1.579227,0.159771,8.942252
4577052.616467,773,0.012095,-0.005730,-8.918677,0.601220,0.052096,5.982065,0.000018,0.009147,-1.579227,0.159771,8.942252
4577052.628998,774,0.012532,-0.005730,-8.918677,0.601220,0.052096,5.982065,0.000018,0.009147,-1.579227,0.159771,8.942252
4577052.641530,775,0.012532,-0.005730,-8.918677,0.601220,0.052096,5.982065,0.000018,0.009147,-1.579227,0.159771,8.942252
4577052.652057,776,0.010527,-0.005730,-8.918677,0.601220,0.052096,5.982065,0.000018,0.009147,-1.579227,0.159771,8.942252
4577052.664580,777,0.012523,-0.005730,-8.918677,0.601220,0.052096,5.982065,0.000018,0.009147,-1.579227,0.159771,8.942252
4577052.676918,778,0.012338,-0.005730,-8.918677,0.601220,0.052096,5.982065,0.000018,0.009147,-1.579227,0.159771,8.942252
4577052.688964,779,0.012046,-0.005730,-8.918677,0.601220,0.052096,5.982065,0.000018,0.009147,-1.579227,0.159771,8.942252
4577052.701496,780,0.012532,-0.005730,-8.918677,0.601220,0.052096,5.982065,0.000018,0.009147,-1.579227,0.159771,8.942252
4577052.714032,781,0.012536,-0.005730,-8.918677,0.601220,0.052096,5.982065,0.000018,0.009147,-1.579227,0.159771,8.942252
4577052.726504,782,0.012472,-0.005730,-8.918677,0.601220,0.052096,5.982065,0.000018,0.009147,-1.579227,0.159771,8.942252
4577052.739038,783,0.012533,-0.003409,-2.932947,-1.801705,0.105547,15.501069,0.000053,0.150109,-0.759177,2.465314,9.934059
4577052.751562,784,0.012524,-0.003409,-2.932947,-1.801705,0.105547,15.501069,0.000053,0.150109,-0.759177,2.465314,9.934059
4577052.764091,785,0.012530,-0.003409,-2.932947,-1.801705,0.105547,15.501069,0.000053,0.150109,-0.759177,2.465314,9.934059
4577052.776622,786,0.012531,-0.003409,-2.932947,-1.801705,0.105547,15.501069,0.000053,0.150109,-0.759177,2.465314,9.934059
4577052.787033,787,0.010411,-0.003409,-2.932947,-1.801705,0.105547,15.501069,0.000053,0.150109,-0.759177,2.465314,9.934059
4577052.798239,788,0.011206,-0.003409,-2.932947,-1.801705,0.105547,15.501069,0.000053,0.150109,-0.759177,2.465314,9.934059
4577052.810773,789,0.012534,-0.003409,-2.932947,-1.801705,0.105547,15.501069,0.000053,0.150109,-0.759177,2.465314,9.934059
4577052.823304,790,0.012531,-0.003409,-2.932947,-1.801705,0.105547,15.501069,0.000053,0.150109,-0.759177,2.465314,9.934059
4577052.833440,791,0.010136,-0.003409,-2.932947,-1.801705,0.105547,15.501069,0.000053,0.150109,-0.759177,2.465314,9.934059
4577052.845972,792,0.012532,-0.003409,-2.932947,-1.801705,0.105547,15.501069,0.000053,0.150109,-0.759177,2.465314,9.934059
4577052.857271,793,0.011299,0.023731,-0.886104,7.947297,-0.121871,2.817763,-0.000055,0.149687,-0.158326,-1.816573,9.388413
4577052.869799,794,0.012528,0.023731,-0.886104,7.947297,-0.121871,2.817763,-0.000055,0.149687,-0.158326,-1.816573,9.388413
4577052.881881,795,0.012083,0.023731,-0.886104,7.947297,-0.121871,2.817763,-0.000055,0.149687,-0.158326,-1.816573,9.388413
4577052.894410,796,0.012529,0.023731,-0.886104,7.947297,-0.121871,2.817763,-0.000055,0.149687,-0.158326,-1.816573,9.388413
4577052.906623,797,0.012213,0.023731,-0.886104,7.947297,-0.121871,2.817763,-0.000055,0.149687,-0.158326,-1.816573,9.388413
4577052.919146,798,0.012522,0.023731,-0.886104,7.947297,-0.121871,2.817763,-0.000055,0.149687,-0.158326,-1.816573,9.388413
4577052.931572,799,0.012426,0.023731,-0.886104,7.947297,-0.121871,2.817763,-0.000055,0.149687,-0.158326,-1.816573,9.388413
4577052.943765,800,0.012193,0.023731,-0.886104,7.947297,-0.121871,2.817763,-0.000055,0.149687,-0.158326,-1.816573,9.388413
4577052.953810,801,0.010045,0.023731,-0.886104,7.947297,-0.121871,2.817763,-0.000055,0.149687,-0.158326,-1.816573,9.388413
4577052.966351,802,0.012540,0.023731,-0.886104,7.947297,-0.121871,2.817763,-0.000055,0.149687,-0.158326,-1.816573,9.388413
4577052.976713,803,0.010362,0.023731,-0.886104,7.947297,-0.121871,2.817763,-0.000055,0.149687,-0.158326,-1.816573,9.388413
4577052.986851,804,0.010138,0.023731,-0.886104,7.947297,-0.121871,2.817763,-0.000055,0.149687,-0.158326,-1.816573,9.388413
4577052.998247,805,0.011396,0.023731,-0.886104,7.947297,-0.121871,2.817763,-0.000055,0.149687,-0.158326,-1.816573,9.388413
4577053.008727,806,0.010480,0.023731,-0.886104,7.947297,-0.121871,2.817763,-0.000055,0.149687,-0.158326,-1.816573,9.388413
4577053.020120,807,0.011393,0.023731,-0.886104,7.947297,-0.121871,2.817763,-0.000055,0.149687,-0.158326,-1.816573,9.388413
4577053.033553,808,0.013433,0.023731,-0.886104,7.947297,-0.121871,2.817763,-0.000055,0.149687,-0.158326,-1.816573,9.388413
4577053.045996,809,0.012443,0.040049,-0.501402,4.514948,0.065192,-1.149226,0.000019,0.089195,0.000073,-0.719014,9.763016
4577053.057707,810,0.011711,0.040049,-0.501402,4.514948,0.065192,-1.149226,0.000019,0.089195,0.000073,-0.719014,9.763016
4577053.070267,811,0.012560,0.040049,-0.501402,4.514948,0.065192,-1.149226,0.000019,0.089195,0.000073,-0.719014,9.763016
4577053.082088,812,0.011820,0.040049,-0.501402,4.514948,0.065192,-1.149226,0.000019,0.089195,0.000073,-0.719014,9.763016
4577053.094628,813,0.012540,0.040049,-0.501402,4.514948,0.065192,-1.149226,0.000019,0.089195,0.000073,-0.719014,9.763016
4577053.107150,814,0.012523,0.040049,-0.501402,4.514948,0.065192,-1.149226,0.000019,0.089195,0.000073,-0.719014,9.763016
4577053.119672,815,0.012522,0.040049,-0.501402,4.514948,0.065192,-1.149226,0.000019,0.089195,0.000073,-0.719014,9.763016
4577053.132212,816,0.012540,0.040049,-0.501402,4.514948,0.065192,-1.149226,0.000019,0.089195,0.000073,-0.719014,9.763016
4577053.144743,817,0.012530,0.040049,-0.501402,4.514948,0.065192,-1.149226,0.000019,0.089195,0.000073,-0.719014,9.763016
4577053.155094,818,0.010352,0.040049,-0.501402,4.514948,0.065192,-1.149226,0.000019,0.089195,0.000073,-0.719014,9.763016
4577053.166561,819,0.011466,0.040049,-0.501402,4.514948,0.065192,-1.149226,0.000019,0.089195,0.000073,-0.719014,9.763016
4577053.179100,820,0.012539,0.033091,-1.097234,2.113696,-0.473418,14.273353,-0.000001,-0.855249,0.324076,0.113394,8.880645
4577053.191637,821,0.012537,0.033091,-1.097234,2.113696,-0.473418,14.273353,-0.000001,-0.855249,0.324076,0.113394,8.880645
4577053.203194,822,0.011557,0.033091,-1.097234,2.113696,-0.473418,14.273353,-0.000001,-0.855249,0.324076,0.113394,8.880645
4577053.215735,823,0.012541,0.033091,-1.097234,2.113696,-0.473418,14.273353,-0.000001,-0.855249,0.324076,0.113394,8.880645
4577053.225917,824,0.010182,0.033091,-1.097234,2.113696,-0.473418,14.273353,-0.000001,-0.855249,0.324076,0.113394,8.880645
4577053.237200,825,0.011283,0.033091,-1.097234,2.113696,-0.473418,14.273353,-0.000001,-0.855249,0.324076,0.113394,8.880645
4577053.249244,826,0.012044,0.033091,-1.097234,2.113696,-0.473418,14.273353,-0.000001,-0.855249,0.324076,0.113394,8.880645
4577053.261676,827,0.012432,0.033091,-1.097234,2.113696,-0.473418,14.273353,-0.000001,-0.855249,0.324076,0.113394,8.880645
4577053.273450,828,0.011773,0.033091,-1.097234,2.113696,-0.473418,14.273353,-0.000001,-0.855249,0.324076,0.113394,8.880645
4577053.285632,829,0.012182,0.033091,-1.097234,2.113696,-0.473418,14.273353,-0.000001,-0.855249,0.324076,0.113394,8.880645
4577053.298156,830,0.012524,0.033091,-1.097234,2.113696,-0.473418,14.273353,-0.000001,-0.855249,0.324076,0.113394,8.880645
4577053.309107,831,0.010952,0.033091,-1.097234,2.113696,-0.473418,14.273353,-0.000001,-0.855249,0.324076,0.113394,8.880645
4577053.321129,832,0.012022,0.033091,-1.097234,2.113696,-0.473418,14.273353,-0.000001,-0.855249,0.324076,0.113394,8.880645
4577053.332115,833,0.010986,0.033091,-1.097234,2.113696,-0.473418,14.273353,-0.000001,-0.855249,0.324076,0.113394,8.880645
4577053.343327,834,0.011212,0.033091,-1.097234,2.113696,-0.473418,14.273353,-0.000001,-0.855249,0.324076,0.113394,8.880645
4577053.355853,835,0.012526,-0.004565,-2.636880,3.124212,0.146907,4.885519,0.000125,-0.404654,-0.580937,-0.669039,9.631325
